<div>
   <p>
        Guidance on interpreting the tables can be found <a href="overview.html#mappings">here</a>.
      </p>
   <div id="tabs">
      <ul>
         <li>
            <a href="#lookup">CDISC Lookup view</a>
         </li>
         <li>
            <a href="#mapping">FHIR mapping view</a>
         </li>
      </ul>
      <div id="lookup">
         <table class="grid"
                style="width:150%;word-break:break-word;table-layout:fixed;">
            <col style="width:15%"/>
            <col style="width:7.5%"/>
            <col style="width:7.5%"/>
            <col style="width:15%;"/>
            <col style="width:20%;"/>
            <col style="width:35%;"/>
            <thead style="background-color:PowderBlue;">
               <tr>
                  <th colspan="3" style="text-align:center;">CDISC</th>
                  <th colspan="2" style="text-align:center;">FHIR map (or gap)</th>
                  <th rowspan="2" style="vertical-align:bottom;text-align:center;">Comment</th>
               </tr>
               <tr style="text-align:center;">
                  <th style="text-align:center;">Label</th>
                  <th style="text-align:center;">CDASH</th>
                  <th style="text-align:center;">SDTM</th>
                  <th style="text-align:center;">Element</th>
                  <th style="text-align:center;">FHIRPath</th>
               </tr>
            </thead>
            <tbody>
               <tr>
                  <th>Study Identifier</th>
                  <td>
                     <span style="font-weight:bold" title="A unique identifier for a study.">
                        <a href="https://library.cdisc.org/api/mdr/cdashig/2-1/domains/AE/fields/STUDYID">STUDYID</a>
                     </span>
                     <br/>Core: HR<br/>Type: Char</td>
                  <td>
                     <span style="font-weight:bold" title="Unique identifier for a study.">
                        <a href="https://library.cdisc.org/api/mdr/sdtmig/3-2/datasets/AE/variables/STUDYID">STUDYID</a>
                     </span>
                     <br/>Core: Req<br/>Type: Char</td>
                  <td>
                     <span title="AdverseEvent.study.">
                        <a style="font-weight:bold"
                           href="{{site.data.fhir.path}}adverseevent-definitions.html#AdverseEvent.study">AdverseEvent.study</a>
                     </span>
                     <br/>0..* <a href="{{site.data.fhir.path}}references.html">Reference</a>
                  </td>
                  <td>
                     <p>AdverseEvent.study.resolve().partOf.resolve().identifier</p>
                     <p>ResearchSubject.where(subject=AdverseEvent.subject).study.resolve().partOf.resolve().identifier</p>
                  </td>
                  <td>Mapping is based on presumption that research subject will be tied to site-specific ResearchStudy, which will then be part of overall ResearchStudy.<br/>
                     <br/>The direct path using AdverseEvent.study will only exist if the system maintaining the AdverseEvent is aware of its relevance to the Study.    ResearchStudy links to Patient. Observation links to Patient. If the patients are the same, that establishes the linkage. There's also an extension that allows direct linkage to a 'study' from any resource - if the source system has actually established such a linkage.</td>
               </tr>
               <tr>
                  <th>Study Site Identifier</th>
                  <td>
                     <span style="font-weight:bold"
                           title="A unique identifier for a site within a study.">
                        <a href="https://library.cdisc.org/api/mdr/cdashig/2-1/domains/AE/fields/SITEID">SITEID</a>
                     </span>
                     <br/>Core: HR<br/>Type: Char</td>
                  <td>
                     <span style="font-weight:bold"
                           title="Unique identifier for a site within a study.">
                        <a href="https://library.cdisc.org/api/mdr/sdtmig/3-2/datasets/DM/variables/SITEID">DM.SITEID</a>
                     </span>
                     <br/>Core: Req<br/>Type: Char</td>
                  <td>
                     <span title="A facility in which study activities are conducted.">
                        <a style="font-weight:bold"
                           href="{{site.data.fhir.path}}researchstudy-definitions.html#ResearchStudy.site">ResearchStudy.site</a>
                     </span>
                     <br/>0..* <a href="{{site.data.fhir.path}}references.html">Reference</a>
                  </td>
                  <td>
                     <p>AdverseEvent.study.resolve().identifier</p>
                     <p>ResearchSubject.where(subject=AdverseEvent.subject).study.resolve().identifier</p>
                  </td>
                  <td>Mapping is based on presumption that research subject will be tied to site-specific ResearchStudy, which will then be part of overall ResearchStudy.<br/>
                     <br/>The direct path using AdverseEvent.study will only exist if the system maintaining the AdverseEvent is aware of its relevance to the Study.</td>
               </tr>
               <tr>
                  <th>Subject Identifier for the Study</th>
                  <td>
                     <span style="font-weight:bold"
                           title="A unique subject identifier within a site and a study.">
                        <a href="https://library.cdisc.org/api/mdr/cdashig/2-1/domains/AE/fields/SUBJID">SUBJID</a>
                     </span>
                     <br/>Core: HR<br/>Type: Char</td>
                  <td>
                     <span style="font-weight:bold"
                           title="Subject identifier, which must be unique within the study. Often the ID of the subject as recorded on a CRF.">
                        <a href="https://library.cdisc.org/api/mdr/sdtmig/3-2/datasets/DM/variables/SUBJID">DM.SUBJID</a>
                     </span>
                     <br/>Core: Req<br/>Type: Char</td>
                  <td>
                     <span title="Identifiers assigned to this research subject for a study.">
                        <a style="font-weight:bold"
                           href="{{site.data.fhir.path}}researchsubject-definitions.html#ResearchSubject.identifier">ResearchSubject.identifier</a>
                     </span>
                     <br/>0..* <a href="{{site.data.fhir.path}}datatypes.html#Identifier">Identifier</a>
                  </td>
                  <td>
                     <p>ResearchSubject.where(individual=AdverseEvent.subject).identifier</p>
                  </td>
                  <td>Research subject points to patient, adverse event points to patient. Adverse event points to study. Check to see if they are the same in order to establish linkage.  When extracting real world evidence either the extraction will be performed in a fully identified mode and de-identification will happen as a subsequent process or the de-identification will already have occurred. Any identify info in the resources will already have real world identification randomized or otherwise made nonsensitive. The mapping is referring to subject.reference not to the identifier element on the clinical resources.</td>
               </tr>
               <tr>
                  <th>Any Adverse Event</th>
                  <td>
                     <span style="font-weight:bold"
                           title="An indication whether or not any AEs were experienced during the study.">
                        <a href="https://library.cdisc.org/api/mdr/cdashig/2-1/domains/AE/fields/AEYN">AEYN</a>
                     </span>
                     <br/>Core: O<br/>Type: Char</td>
                  <td>
                     <span style="font-weight:bold"/>
                  </td>
                  <td colspan="2" style="background-color:LightGray">In FHIR, this would be determined by searching for AdverseEvents with a given subject (possibly also filtered by research study) and excluding those that were entered in error.  If a flag were necessary, it would be an extension on Study, not sent on AdverseEvent.  It might also be necessary to search for Condition instances, Observation instances, Encounters with particular reasons and other resources if the desire is to have the full set of potential adverse reactions.</td>
                  <td/>
               </tr>
               <tr>
                  <th>Category for Adverse Event</th>
                  <td>
                     <span style="font-weight:bold"
                           title="A grouping of topic-variable values based on user-defined characteristics.">
                        <a href="https://library.cdisc.org/api/mdr/cdashig/2-1/domains/AE/fields/AECAT">AECAT</a>
                     </span>
                     <br/>Core: O<br/>Type: Char</td>
                  <td>
                     <span style="font-weight:bold"
                           title="Used to define a category of related records. Example: BLEEDING, NEUROPSYCHIATRIC.">
                        <a href="https://library.cdisc.org/api/mdr/sdtmig/3-2/datasets/AE/variables/AECAT">AECAT</a>
                     </span>
                     <br/>Core: Perm<br/>Type: Char</td>
                  <td>
                     <span title="The overall type of event, intended for search and filtering purposes.">
                        <a style="font-weight:bold"
                           href="{{site.data.fhir.path}}adverseevent-definitions.html#AdverseEvent.category">AdverseEvent.category</a>
                     </span>
                     <br/>0..* <a href="{{site.data.fhir.path}}datatypes.html#CodeableConcept">CodeableConcept</a>
                     <br/>Binding: <a href="http://hl7.org/fhir/ValueSet/adverse-event-category">AdverseEventCategory</a> 
                     <a href="{{site.data.fhir.path}}terminologies.html#extensible">extensible</a>
                  </td>
                  <td>
                     <p>AdverseEvent.category</p>
                  </td>
                  <td>This is typically sponsor-specific and we would not expect this to come from the site.<br/>
                     <br/>In FHIR, an AdverseEvent can be categorized in as many ways as desired with whatever granularity is desired.  When converting from FHIR to CDASH, systems will need to look at the FHIR categories (and potentially other information) to determine how best to populate AECAT and AESCAT based on the study-designed categories (unless they've pre-arranged with the EHR to ensure it captures the same codes)</td>
               </tr>
               <tr>
                  <th>Subcategory for Adverse Event</th>
                  <td>
                     <span style="font-weight:bold"
                           title="A sub-division of the AECAT values based on user-defined characteristics.">
                        <a href="https://library.cdisc.org/api/mdr/cdashig/2-1/domains/AE/fields/AESCAT">AESCAT</a>
                     </span>
                     <br/>Core: O<br/>Type: Char</td>
                  <td>
                     <span style="font-weight:bold"
                           title="A further categorization of adverse event. Example: NEUROLOGIC.">
                        <a href="https://library.cdisc.org/api/mdr/sdtmig/3-2/datasets/AE/variables/AESCAT">AESCAT</a>
                     </span>
                     <br/>Core: Perm<br/>Type: Char</td>
                  <td>
                     <span title="The overall type of event, intended for search and filtering purposes.">
                        <a style="font-weight:bold"
                           href="{{site.data.fhir.path}}adverseevent-definitions.html#AdverseEvent.category">AdverseEvent.category</a>
                     </span>
                     <br/>0..* <a href="{{site.data.fhir.path}}datatypes.html#CodeableConcept">CodeableConcept</a>
                     <br/>Binding: <a href="http://hl7.org/fhir/ValueSet/adverse-event-category">AdverseEventCategory</a> 
                     <a href="{{site.data.fhir.path}}terminologies.html#extensible">extensible</a>
                  </td>
                  <td>
                     <p>AdverseEvent.category</p>
                  </td>
                  <td>This is typically sponsor-specific and we would not expect this to come from the site.<br/>
                     <br/>In FHIR, an AdverseEvent can be categorized in as many ways as desired with whatever granularity is desired.  When converting from FHIR to CDASH, systems will need to look at the FHIR categories (and potentially other information) to determine how best to populate AECAT and AESCAT based on the study-designed categories (unless they've pre-arranged with the EHR to ensure it captures the same codes)</td>
               </tr>
               <tr>
                  <th>AE Sponsor-Defined Identifier</th>
                  <td>
                     <span style="font-weight:bold"
                           title="A sponsor-defined identifier. In CDASH, This is typically used for preprinted or auto-generated numbers on the CRF, or any other type of identifier that does not already have a defined CDASH identifier field.">
                        <a href="https://library.cdisc.org/api/mdr/cdashig/2-1/domains/AE/fields/AESPID">AESPID</a>
                     </span>
                     <br/>Core: O<br/>Type: Char</td>
                  <td>
                     <span style="font-weight:bold"
                           title="Sponsor-defined identifier. It may be pre-printed on the CRF as an explicit line identifier or defined in the sponsor's operational database. Example: Line number on an Adverse Events page.">
                        <a href="https://library.cdisc.org/api/mdr/sdtmig/3-2/datasets/AE/variables/AESPID">AESPID</a>
                     </span>
                     <br/>Core: Perm<br/>Type: Char</td>
                  <td>
                     <span title="Business identifiers assigned to this adverse event by the performer or other systems which remain constant as the resource is updated and propagates from server to server.">
                        <a style="font-weight:bold"
                           href="{{site.data.fhir.path}}adverseevent-definitions.html#AdverseEvent.identifier">AdverseEvent.identifier</a>
                     </span>
                     <br/>0..1 <a href="{{site.data.fhir.path}}datatypes.html#Identifier">Identifier</a>
                  </td>
                  <td>
                     <p>AdverseEvent.identifier.where(assigner=sponsor).value</p>
                     <p>AdverseEvent.refID</p>
                  </td>
                  <td>The assigner of the identifier can be explicit or inferred by the Identifier.system.</td>
               </tr>
               <tr>
                  <th>Reported Term for the Adverse Event</th>
                  <td>
                     <span style="font-weight:bold"
                           title="The reported or prespecified name of the adverse event.">
                        <a href="https://library.cdisc.org/api/mdr/cdashig/2-1/domains/AE/fields/AETERM">AETERM</a>
                     </span>
                     <br/>Core: HR<br/>Type: Char</td>
                  <td>
                     <span style="font-weight:bold" title="Verbatim name of the event.">
                        <a href="https://library.cdisc.org/api/mdr/sdtmig/3-2/datasets/AE/variables/AETERM">AETERM</a>
                     </span>
                     <br/>Core: Req<br/>Type: Char</td>
                  <td>
                     <span title="Identification of the condition, problem or diagnosis.">
                        <a style="font-weight:bold"
                           href="{{site.data.fhir.path}}condition-definitions.html#Condition.code">Condition.code</a>
                     </span>
                     <br/>0..1 <a href="{{site.data.fhir.path}}datatypes.html#CodeableConcept">CodeableConcept</a>
                     <br/>Binding: <a href="http://hl7.org/fhir/ValueSet/condition-code">ConditionKind</a> 
                     <a href="{{site.data.fhir.path}}terminologies.html#example">example</a>
                  </td>
                  <td>
                     <p>AdverseEvent.resultingCondition.resolve().code</p>
                  </td>
                  <td/>
               </tr>
               <tr>
                  <th>Adverse Event Occurrence</th>
                  <td>
                     <span style="font-weight:bold"
                           title="An indication whether a prespecified adverse event or a group of adverse events occurred when information about the occurrence of a specific event is solicited.">
                        <a href="https://library.cdisc.org/api/mdr/cdashig/2-1/domains/AE/fields/AEOCCUR">AEOCCUR</a>
                     </span>
                     <br/>Core: O<br/>Type: Char</td>
                  <td>
                     <span style="font-weight:bold"/>
                  </td>
                  <td colspan="2" style="background-color:LightGray">FHIR only captures AdverseEvents that have actually occurred.  A flag about whether a particular potential adverse reaction has been detected or not could be captured using Questionnaire Response</td>
                  <td/>
               </tr>
               <tr>
                  <th>Prespecified Adverse Event</th>
                  <td>
                     <span style="font-weight:bold"
                           title="An indication that a specific event, or group of events, are prespecified on a CRF.">
                        <a href="https://library.cdisc.org/api/mdr/cdashig/2-1/domains/AE/fields/AEPRESP">AEPRESP</a>
                     </span>
                     <br/>Core: O<br/>Type: Char</td>
                  <td>
                     <span style="font-weight:bold"
                           title="A value of &#34;Y&#34; indicates that this adverse event was pre-specified on the CRF. Values are null for spontaneously reported events (i.e., those collected as free-text verbatim terms)">
                        <a href="https://library.cdisc.org/api/mdr/sdtmig/3-2/datasets/AE/variables/AEPRESP">AEPRESP</a>
                     </span>
                     <br/>Core: Perm<br/>Type: Char</td>
                  <td colspan="2" style="background-color:LightGray">If captured within an EHR, this would be an extension on the existing extension that references the ResearchStudy.  (An AdverseEvent might be pre-specified for one study and not for another.)</td>
                  <td/>
               </tr>
               <tr>
                  <th>Adverse Event Start Date</th>
                  <td>
                     <span style="font-weight:bold"
                           title="The start date of the adverse event, represented in an unambiguous date format (e.g., DD-MON-YYYY).">
                        <a href="https://library.cdisc.org/api/mdr/cdashig/2-1/domains/AE/fields/AESTDAT">AESTDAT</a>
                     </span>
                     <br/>Core: HR<br/>Type: Char</td>
                  <td>
                     <span style="font-weight:bold">
                        <a href="https://library.cdisc.org/api/mdr/sdtmig/3-2/datasets/AE/variables/AESTDTC">AESTDTC</a>
                     </span>
                     <br/>Core: Exp<br/>Type: Char<br/>values: ISO 8601</td>
                  <td>
                     <span title="The date (and perhaps time) when the adverse event occurred.">
                        <a style="font-weight:bold"
                           href="{{site.data.fhir.path}}adverseevent-definitions.html#AdverseEvent.date">AdverseEvent.date</a>
                     </span>
                     <br/>0..1 <a href="{{site.data.fhir.path}}datatypes.html#dateTime">dateTime</a>
                  </td>
                  <td>
                     <p>AdverseEvent.date(date portion)</p>
                  </td>
                  <td/>
               </tr>
               <tr>
                  <th>Start Time of Adverse Event</th>
                  <td>
                     <span style="font-weight:bold"
                           title="The start time of the adverse event, represented in an unambiguous time format (e.g., hh:mm:ss)">
                        <a href="https://library.cdisc.org/api/mdr/cdashig/2-1/domains/AE/fields/AESTTIM">AESTTIM</a>
                     </span>
                     <br/>Core: R/C<br/>Type: Char</td>
                  <td>
                     <span style="font-weight:bold">
                        <a href="https://library.cdisc.org/api/mdr/sdtmig/3-2/datasets/AE/variables/AESTDTC">AESTDTC</a>
                     </span>
                     <br/>Core: Exp<br/>Type: Char<br/>values: ISO 8601</td>
                  <td>
                     <span title="The date (and perhaps time) when the adverse event occurred.">
                        <a style="font-weight:bold"
                           href="{{site.data.fhir.path}}adverseevent-definitions.html#AdverseEvent.date">AdverseEvent.date</a>
                     </span>
                     <br/>0..1 <a href="{{site.data.fhir.path}}datatypes.html#dateTime">dateTime</a>
                  </td>
                  <td>
                     <p>AdverseEvent.date(time portion)</p>
                  </td>
                  <td/>
               </tr>
               <tr>
                  <th>AE Location of Event</th>
                  <td>
                     <span style="font-weight:bold"
                           title="A description of the anatomical location relevant for the adverse event.">
                        <a href="https://library.cdisc.org/api/mdr/cdashig/2-1/domains/AE/fields/AELOC">AELOC</a>
                     </span>
                     <br/>Core: O<br/>Type: Char</td>
                  <td>
                     <span style="font-weight:bold"
                           title="Describes anatomical location relevant for the event (e.g., ARM for skin rash).">
                        <a href="https://library.cdisc.org/api/mdr/sdtmig/3-2/datasets/AE/variables/AELOC">AELOC</a>
                     </span>
                     <br/>Core: Perm<br/>Type: Char</td>
                  <td>
                     <span title="The anatomical location where this condition manifests itself.">
                        <a style="font-weight:bold"
                           href="{{site.data.fhir.path}}condition-definitions.html#Condition.bodySite">Condition.bodySite</a>
                     </span>
                     <br/>0..* <a href="{{site.data.fhir.path}}datatypes.html#CodeableConcept">CodeableConcept</a>
                     <br/>Binding: <a href="http://hl7.org/fhir/ValueSet/body-site">BodySite</a> 
                     <a href="{{site.data.fhir.path}}terminologies.html#example">example</a>
                  </td>
                  <td>
                     <p>AdverseEvent.resultingCondition.resolve().bodySite</p>
                  </td>
                  <td>Requires knowledge or review of data to ensure location, laterality and directionality are included in the code and can be parsed.</td>
               </tr>
               <tr>
                  <th>Adverse Event Laterality</th>
                  <td>
                     <span style="font-weight:bold"
                           title="Qualifier for anatomical location further detailing the side of the body relevant for the event.">
                        <a href="https://library.cdisc.org/api/mdr/cdashig/2-1/domains/AE/fields/AELAT">AELAT</a>
                     </span>
                     <br/>Core: O<br/>Type: Char</td>
                  <td>
                     <span style="font-weight:bold">AELAT*</span>
                  </td>
                  <td>
                     <span title="The anatomical location where this condition manifests itself.">
                        <a style="font-weight:bold"
                           href="{{site.data.fhir.path}}condition-definitions.html#Condition.bodySite">Condition.bodySite</a>
                     </span>
                     <br/>0..* <a href="{{site.data.fhir.path}}datatypes.html#CodeableConcept">CodeableConcept</a>
                     <br/>Binding: <a href="http://hl7.org/fhir/ValueSet/body-site">BodySite</a> 
                     <a href="{{site.data.fhir.path}}terminologies.html#example">example</a>
                  </td>
                  <td>
                     <p>AdverseEvent.resultingCondition.resolve().bodySite</p>
                  </td>
                  <td>Requires knowledge or review of data to ensure location, laterality and directionality are included in the code and can be parsed.</td>
               </tr>
               <tr>
                  <th>Adverse Event Directionality</th>
                  <td>
                     <span style="font-weight:bold"
                           title="Qualifier further detailing the position of the anatomical location relative to the center of the body, organ, or specimen.">
                        <a href="https://library.cdisc.org/api/mdr/cdashig/2-1/domains/AE/fields/AEDIR">AEDIR</a>
                     </span>
                     <br/>Core: O<br/>Type: Char</td>
                  <td>
                     <span style="font-weight:bold">AEDIR*</span>
                  </td>
                  <td>
                     <span title="The anatomical location where this condition manifests itself.">
                        <a style="font-weight:bold"
                           href="{{site.data.fhir.path}}condition-definitions.html#Condition.bodySite">Condition.bodySite</a>
                     </span>
                     <br/>0..* <a href="{{site.data.fhir.path}}datatypes.html#CodeableConcept">CodeableConcept</a>
                     <br/>Binding: <a href="http://hl7.org/fhir/ValueSet/body-site">BodySite</a> 
                     <a href="{{site.data.fhir.path}}terminologies.html#example">example</a>
                  </td>
                  <td>
                     <p>AdverseEvent.resultingCondition.resolve().bodySite</p>
                  </td>
                  <td>Requires knowledge or review of data to ensure location, laterality and directionality are included in the code and can be parsed.</td>
               </tr>
               <tr>
                  <th>AE Location Portion or Totality</th>
                  <td>
                     <span style="font-weight:bold"
                           title="Qualifier for anatomical location further detailing the distribution (i.e., arrangement of, apportioning of).">
                        <a href="https://library.cdisc.org/api/mdr/cdashig/2-1/domains/AE/fields/AEPORTOT">AEPORTOT</a>
                     </span>
                     <br/>Core: O<br/>Type: Char</td>
                  <td>
                     <span style="font-weight:bold">AEPORTOT*</span>
                  </td>
                  <td>
                     <span title="The anatomical location where this condition manifests itself.">
                        <a style="font-weight:bold"
                           href="{{site.data.fhir.path}}condition-definitions.html#Condition.bodySite">Condition.bodySite</a>
                     </span>
                     <br/>0..* <a href="{{site.data.fhir.path}}datatypes.html#CodeableConcept">CodeableConcept</a>
                     <br/>Binding: <a href="http://hl7.org/fhir/ValueSet/body-site">BodySite</a> 
                     <a href="{{site.data.fhir.path}}terminologies.html#example">example</a>
                  </td>
                  <td>
                     <p>AdverseEvent.resultingCondition.resolve().bodySite</p>
                  </td>
                  <td>Review of data to ensure location, laterality and directionality are included in the code and can be parsed.</td>
               </tr>
               <tr>
                  <th>Ongoing Adverse Event</th>
                  <td>
                     <span style="font-weight:bold"
                           title="Indication that an adverse event is ongoing when no End Date is provided.">
                        <a href="https://library.cdisc.org/api/mdr/cdashig/2-1/domains/AE/fields/AEONGO">AEONGO</a>
                     </span>
                     <br/>Core: O<br/>Type: Char</td>
                  <td>
                     <span style="font-weight:bold"
                           title="Identifies the end of the event as being before or after the reference time point defined by variable AEENTPT.">
                        <a href="https://library.cdisc.org/api/mdr/sdtmig/3-2/datasets/AE/variables/AEENRTPT">AEENRTPT</a>
                     </span>
                     <br/>Core: Perm<br/>Type: Char<span style="font-weight:bold"
                           title="Describes the end of the event relative to the sponsor-defined reference period. The sponsor-defined reference period is a continuous period of time defined by a discrete starting point (RFSTDTC) and a discrete ending point (RFENDTC) of the trial.">
                        <a href="https://library.cdisc.org/api/mdr/sdtmig/3-2/datasets/AE/variables/AEENRF">AEENRF</a>
                     </span>
                     <br/>Core: Perm<br/>Type: Char</td>
                  <td>
                     <span title="Describes the type of outcome from the adverse event.">
                        <a style="font-weight:bold"
                           href="{{site.data.fhir.path}}adverseevent-definitions.html#AdverseEvent.outcome">AdverseEvent.outcome</a>
                     </span>
                     <br/>0..1 <a href="{{site.data.fhir.path}}datatypes.html#CodeableConcept">CodeableConcept</a>
                     <br/>Binding: <a href="http://hl7.org/fhir/ValueSet/adverse-event-outcome">AdverseEventOutcome</a> 
                     <a href="{{site.data.fhir.path}}terminologies.html#required">required</a>
                  </td>
                  <td>
                     <p>AdverseEvent.outcome=ongoing</p>
                  </td>
                  <td>Note that the assertion of 'ongoing' is made at the time the adverse event is recorded, which may or may not be what's needed for submission purposes.</td>
               </tr>
               <tr>
                  <th>Adverse Event End Date</th>
                  <td>
                     <span style="font-weight:bold"
                           title="The date when the adverse event resolved/ended, represented in an unambiguous date format (e.g., DD-MON-YYYY).">
                        <a href="https://library.cdisc.org/api/mdr/cdashig/2-1/domains/AE/fields/AEENDAT">AEENDAT</a>
                     </span>
                     <br/>Core: R/C<br/>Type: Char</td>
                  <td>
                     <span style="font-weight:bold">
                        <a href="https://library.cdisc.org/api/mdr/sdtmig/3-2/datasets/AE/variables/AEENDTC">AEENDTC</a>
                     </span>
                     <br/>Core: Exp<br/>Type: Char<br/>values: ISO 8601</td>
                  <td>
                     <span title="May be used to represent additional information that is not part of the basic definition of the resource. To make the use of extensions safe and manageable, there is a strict set of governance  applied to the definition and use of extensions. Though any implementer can define an extension, there is a set of requirements that SHALL be met as part of the definition of the extension.">
                        <a style="font-weight:bold"
                           href="{{site.data.fhir.path}}adverseevent-definitions.html#AdverseEvent.extension">AdverseEvent.extension</a>
                     </span>
                     <br/>0..* <a href="{{site.data.fhir.path}}datatypes.html#Extension">Extension</a>
                  </td>
                  <td>
                     <p>AdverseEvent.extension(AdverseEvent.occurrence).valuePeriod.end</p>
                  </td>
                  <td>Need to use a standard extension to pre-adopt the type allowed in R5.  Element contains both date and time (if specified).</td>
               </tr>
               <tr>
                  <th>End Time of Adverse Event</th>
                  <td>
                     <span style="font-weight:bold"
                           title="The time when the adverse event ended/resolved, represented in an unambiguous time format (e.g., hh:mm:ss).">
                        <a href="https://library.cdisc.org/api/mdr/cdashig/2-1/domains/AE/fields/AEENTIM">AEENTIM</a>
                     </span>
                     <br/>Core: R/C<br/>Type: Char</td>
                  <td>
                     <span style="font-weight:bold">
                        <a href="https://library.cdisc.org/api/mdr/sdtmig/3-2/datasets/AE/variables/AEENDTC">AEENDTC</a>
                     </span>
                     <br/>Core: Exp<br/>Type: Char<br/>values: ISO 8601</td>
                  <td>
                     <span title="May be used to represent additional information that is not part of the basic definition of the resource. To make the use of extensions safe and manageable, there is a strict set of governance  applied to the definition and use of extensions. Though any implementer can define an extension, there is a set of requirements that SHALL be met as part of the definition of the extension.">
                        <a style="font-weight:bold"
                           href="{{site.data.fhir.path}}adverseevent-definitions.html#AdverseEvent.extension">AdverseEvent.extension</a>
                     </span>
                     <br/>0..* <a href="{{site.data.fhir.path}}datatypes.html#Extension">Extension</a>
                  </td>
                  <td>
                     <p>AdverseEvent.extension(AdverseEvent.occurrence).valuePeriod.end</p>
                  </td>
                  <td>Need to use a standard extension to pre-adopt the type allowed in R5.  Element contains both date and time (if specified).</td>
               </tr>
               <tr>
                  <th>AE Severity/Intensity</th>
                  <td>
                     <span style="font-weight:bold"
                           title="The severity or intensity of the event.">
                        <a href="https://library.cdisc.org/api/mdr/cdashig/2-1/domains/AE/fields/AESEV">AESEV</a>
                     </span>
                     <br/>Core: R/C<br/>Type: Char</td>
                  <td>
                     <span style="font-weight:bold"
                           title="The severity or intensity of the event. Examples: MILD, MODERATE, SEVERE.">
                        <a href="https://library.cdisc.org/api/mdr/sdtmig/3-2/datasets/AE/variables/AESEV">AESEV</a>
                     </span>
                     <br/>Core: Perm<br/>Type: Char</td>
                  <td>
                     <span title="Describes the severity of the adverse event, in relation to the subject. Contrast to AdverseEvent.seriousness - a severe rash might not be serious, but a mild heart problem is.">
                        <a style="font-weight:bold"
                           href="{{site.data.fhir.path}}adverseevent-definitions.html#AdverseEvent.severity">AdverseEvent.severity</a>
                     </span>
                     <br/>0..1 <a href="{{site.data.fhir.path}}datatypes.html#CodeableConcept">CodeableConcept</a>
                     <br/>Binding: <a href="http://hl7.org/fhir/ValueSet/adverse-event-severity">AdverseEventSeverity</a> 
                     <a href="{{site.data.fhir.path}}terminologies.html#required">required</a>
                  </td>
                  <td>
                     <p>AdverseEvent.severity</p>
                  </td>
                  <td/>
               </tr>
               <tr>
                  <th>AE Standard Toxicity Grade</th>
                  <td>
                     <span style="font-weight:bold"
                           title="The grade of the severity of the event using a standard &#34;toxicity&#34; scale (e.g., NCI CTCAE).">
                        <a href="https://library.cdisc.org/api/mdr/cdashig/2-1/domains/AE/fields/AETOXGR">AETOXGR</a>
                     </span>
                     <br/>Core: R/C<br/>Type: Char</td>
                  <td>
                     <span style="font-weight:bold"
                           title="Toxicity grade according to a standard toxicity scale such as Common Terminology Criteria for Adverse Events v3.0 (CTCAE). Sponsor should specify name of the scale and version used in the metadata (see Assumption 6d). If value is from a numeric scale, represent only the number (e.g., &#34;2&#34; and not &#34;Grade 2&#34;).">
                        <a href="https://library.cdisc.org/api/mdr/sdtmig/3-2/datasets/AE/variables/AETOXGR">AETOXGR</a>
                     </span>
                     <br/>Core: Perm<br/>Type: Char</td>
                  <td colspan="2" style="background-color:LightGray">Recommendation is to add extension for oncology or other studies requiring toxicity grades.</td>
                  <td/>
               </tr>
               <tr>
                  <th>AE Serious Event</th>
                  <td>
                     <span style="font-weight:bold"
                           title="An indication whether or not the adverse event is determined to be &#34;serious&#34; based on what is defined in the protocol.">
                        <a href="https://library.cdisc.org/api/mdr/cdashig/2-1/domains/AE/fields/AESER">AESER</a>
                     </span>
                     <br/>Core: R/C<br/>Type: Char</td>
                  <td>
                     <span style="font-weight:bold" title="Is this a serious event?">
                        <a href="https://library.cdisc.org/api/mdr/sdtmig/3-2/datasets/AE/variables/AESER">AESER</a>
                     </span>
                     <br/>Core: Exp<br/>Type: Char</td>
                  <td>
                     <span title="Assessment whether this event was of real importance.">
                        <a style="font-weight:bold"
                           href="{{site.data.fhir.path}}adverseevent-definitions.html#AdverseEvent.seriousness">AdverseEvent.seriousness</a>
                     </span>
                     <br/>0..1 <a href="{{site.data.fhir.path}}datatypes.html#CodeableConcept">CodeableConcept</a>
                     <br/>Binding: <a href="http://hl7.org/fhir/ValueSet/adverse-event-seriousness">AdverseEventSeriousness</a> 
                     <a href="{{site.data.fhir.path}}terminologies.html#example">example</a>
                  </td>
                  <td>
                     <p>AdverseEvent.seriousness</p>
                  </td>
                  <td>Access if an adverse event should be classified as serious based on the serious criteria defined in the protocol.</td>
               </tr>
               <tr>
                  <th>Results in Death</th>
                  <td>
                     <span style="font-weight:bold"
                           title="An indication the serious adverse event resulted in death.">
                        <a href="https://library.cdisc.org/api/mdr/cdashig/2-1/domains/AE/fields/AESDTH">AESDTH</a>
                     </span>
                     <br/>Core: R/C<br/>Type: Char</td>
                  <td>
                     <span style="font-weight:bold" title="Did the serious event result in death?">
                        <a href="https://library.cdisc.org/api/mdr/sdtmig/3-2/datasets/AE/variables/AESDTH">AESDTH</a>
                     </span>
                     <br/>Core: Perm<br/>Type: Char</td>
                  <td>
                     <span title="Describes the type of outcome from the adverse event.">
                        <a style="font-weight:bold"
                           href="{{site.data.fhir.path}}adverseevent-definitions.html#AdverseEvent.outcome">AdverseEvent.outcome</a>
                     </span>
                     <br/>0..1 <a href="{{site.data.fhir.path}}datatypes.html#CodeableConcept">CodeableConcept</a>
                     <br/>Binding: <a href="http://hl7.org/fhir/ValueSet/adverse-event-outcome">AdverseEventOutcome</a> 
                     <a href="{{site.data.fhir.path}}terminologies.html#required">required</a>
                  </td>
                  <td>
                     <p>AdverseEvent.outcome='fatal'</p>
                  </td>
                  <td/>
               </tr>
               <tr>
                  <th>Death Date</th>
                  <td>
                     <span style="font-weight:bold"
                           title="Date of death for any subject who died.">
                        <a href="https://library.cdisc.org/api/mdr/cdashig/2-1/domains/AE/fields/DTHDAT">DTHDAT</a>
                     </span>
                     <br/>Core: O<br/>Type: Char</td>
                  <td>
                     <span style="font-weight:bold"
                           title="Date/time of death for any subject who died, in ISO 8601 format. Should represent the date/time that is captured in the clinical-trial database.">
                        <a href="https://library.cdisc.org/api/mdr/sdtmig/3-2/datasets/DM/variables/DTHDTC">DM.DTHDTC</a>
                     </span>
                     <br/>Core: Exp<br/>Type: Char<br/>values: ISO 8601</td>
                  <td>
                     <span title="Indicates if the individual is deceased or not.">
                        <a style="font-weight:bold"
                           href="{{site.data.fhir.path}}patient-definitions.html#Patient.deceasedDateTime">Patient.deceasedDateTime</a>
                     </span>
                     <br/>0..1 <a href="{{site.data.fhir.path}}datatypes.html#dateTime">dateTime</a>
                  </td>
                  <td>
                     <p>Patient.deceasedDateTime</p>
                  </td>
                  <td/>
               </tr>
               <tr>
                  <th>Is Life Threatening</th>
                  <td>
                     <span style="font-weight:bold"
                           title="An indication the serious adverse event was life threatening.">
                        <a href="https://library.cdisc.org/api/mdr/cdashig/2-1/domains/AE/fields/AESLIFE">AESLIFE</a>
                     </span>
                     <br/>Core: R/C<br/>Type: Char</td>
                  <td>
                     <span style="font-weight:bold"
                           title="Was the serious event life threatening?">
                        <a href="https://library.cdisc.org/api/mdr/sdtmig/3-2/datasets/AE/variables/AESLIFE">AESLIFE</a>
                     </span>
                     <br/>Core: Perm<br/>Type: Char</td>
                  <td>
                     <span title="Assessment whether this event was of real importance.">
                        <a style="font-weight:bold"
                           href="{{site.data.fhir.path}}adverseevent-definitions.html#AdverseEvent.seriousness">AdverseEvent.seriousness</a>
                     </span>
                     <br/>0..1 <a href="{{site.data.fhir.path}}datatypes.html#CodeableConcept">CodeableConcept</a>
                     <br/>Binding: <a href="http://hl7.org/fhir/ValueSet/adverse-event-seriousness">AdverseEventSeriousness</a> 
                     <a href="{{site.data.fhir.path}}terminologies.html#example">example</a>
                  </td>
                  <td>
                     <p>AdverseEvent.seriousness</p>
                  </td>
                  <td>These would typically be flagged by seriousness or outcome codes.  Will need to propose change request to support capturing more than one</td>
               </tr>
               <tr>
                  <th>Requires or Prolongs Hospitalization</th>
                  <td>
                     <span style="font-weight:bold"
                           title="An indication the serious adverse event resulted in an initial or prolonged hospitalization.">
                        <a href="https://library.cdisc.org/api/mdr/cdashig/2-1/domains/AE/fields/AESHOSP">AESHOSP</a>
                     </span>
                     <br/>Core: R/C<br/>Type: Char</td>
                  <td>
                     <span style="font-weight:bold"
                           title="Did the serious event require or prolong hospitalization?">
                        <a href="https://library.cdisc.org/api/mdr/sdtmig/3-2/datasets/AE/variables/AESHOSP">AESHOSP</a>
                     </span>
                     <br/>Core: Perm<br/>Type: Char</td>
                  <td colspan="2" style="background-color:LightGray">Note: there is Encounter.hospitalization.[x], but its relevance to AESHOSP may not be explicit and would require additional analysis.</td>
                  <td/>
               </tr>
               <tr>
                  <th>Persist or Signif Disability/Incapacity</th>
                  <td>
                     <span style="font-weight:bold"
                           title="An indication the serious adverse event was associated with a persistent or significant disability or incapacity.">
                        <a href="https://library.cdisc.org/api/mdr/cdashig/2-1/domains/AE/fields/AESDISAB">AESDISAB</a>
                     </span>
                     <br/>Core: R/C<br/>Type: Char</td>
                  <td>
                     <span style="font-weight:bold"
                           title="Did the serious event result in persistent or significant disability/incapacity?">
                        <a href="https://library.cdisc.org/api/mdr/sdtmig/3-2/datasets/AE/variables/AESDISAB">AESDISAB</a>
                     </span>
                     <br/>Core: Perm<br/>Type: Char</td>
                  <td>
                     <span title="Describes the type of outcome from the adverse event.">
                        <a style="font-weight:bold"
                           href="{{site.data.fhir.path}}adverseevent-definitions.html#AdverseEvent.outcome">AdverseEvent.outcome</a>
                     </span>
                     <br/>0..1 <a href="{{site.data.fhir.path}}datatypes.html#CodeableConcept">CodeableConcept</a>
                     <br/>Binding: <a href="http://hl7.org/fhir/ValueSet/adverse-event-outcome">AdverseEventOutcome</a> 
                     <a href="{{site.data.fhir.path}}terminologies.html#required">required</a>
                  </td>
                  <td>
                     <p>AdverseEvent.outcome</p>
                  </td>
                  <td>These would typically be flagged by seriousness or outcome codes.  Will need to propose change request to support capturing more than one</td>
               </tr>
               <tr>
                  <th>Congenital Anomaly or Birth Defect</th>
                  <td>
                     <span style="font-weight:bold"
                           title="An indication the serious adverse event was associated with a congenital anomaly or birth defect.">
                        <a href="https://library.cdisc.org/api/mdr/cdashig/2-1/domains/AE/fields/AESCONG">AESCONG</a>
                     </span>
                     <br/>Core: R/C<br/>Type: Char</td>
                  <td>
                     <span style="font-weight:bold"
                           title="Was the serious event associated with congenital anomaly or birth defect?">
                        <a href="https://library.cdisc.org/api/mdr/sdtmig/3-2/datasets/AE/variables/AESCONG">AESCONG</a>
                     </span>
                     <br/>Core: Perm<br/>Type: Char</td>
                  <td>
                     <span title="Describes the type of outcome from the adverse event.">
                        <a style="font-weight:bold"
                           href="{{site.data.fhir.path}}adverseevent-definitions.html#AdverseEvent.outcome">AdverseEvent.outcome</a>
                     </span>
                     <br/>0..1 <a href="{{site.data.fhir.path}}datatypes.html#CodeableConcept">CodeableConcept</a>
                     <br/>Binding: <a href="http://hl7.org/fhir/ValueSet/adverse-event-outcome">AdverseEventOutcome</a> 
                     <a href="{{site.data.fhir.path}}terminologies.html#required">required</a>
                  </td>
                  <td>
                     <p>AdverseEvent.outcome</p>
                  </td>
                  <td>These would typically be flagged by seriousness or outcome codes.  Will need to propose change request to support capturing more than one</td>
               </tr>
               <tr>
                  <th>Needs Intervention to Prevent Impairment</th>
                  <td>
                     <span style="font-weight:bold"
                           title="An indication an adverse event required medical or surgical intervention to preclude permanent impairment of a body function, or prevent permanent damage to a body structure, due to the use of a medical product.">
                        <a href="https://library.cdisc.org/api/mdr/cdashig/2-1/domains/AE/fields/AESINTV">AESINTV</a>
                     </span>
                     <br/>Core: O<br/>Type: Char</td>
                  <td>
                     <span style="font-weight:bold">SUPPAE.QVAL</span>
                  </td>
                  <td>
                     <span title="Describes the type of outcome from the adverse event.">
                        <a style="font-weight:bold"
                           href="{{site.data.fhir.path}}adverseevent-definitions.html#AdverseEvent.outcome">AdverseEvent.outcome</a>
                     </span>
                     <br/>0..1 <a href="{{site.data.fhir.path}}datatypes.html#CodeableConcept">CodeableConcept</a>
                     <br/>Binding: <a href="http://hl7.org/fhir/ValueSet/adverse-event-outcome">AdverseEventOutcome</a> 
                     <a href="{{site.data.fhir.path}}terminologies.html#required">required</a>
                  </td>
                  <td>
                     <p>AdverseEvent.outcome</p>
                  </td>
                  <td>These would typically be flagged by seriousness or outcome codes.  Will need to propose change request to support capturing more than one</td>
               </tr>
               <tr>
                  <th>Other Medically Important Serious Event</th>
                  <td>
                     <span style="font-weight:bold"
                           title="An indication additional categories for seriousness apply.">
                        <a href="https://library.cdisc.org/api/mdr/cdashig/2-1/domains/AE/fields/AESMIE">AESMIE</a>
                     </span>
                     <br/>Core: R/C<br/>Type: Char</td>
                  <td>
                     <span style="font-weight:bold"
                           title="Do additional categories for seriousness apply?">
                        <a href="https://library.cdisc.org/api/mdr/sdtmig/3-2/datasets/AE/variables/AESMIE">AESMIE</a>
                     </span>
                     <br/>Core: Perm<br/>Type: Char</td>
                  <td>
                     <span title="Describes the type of outcome from the adverse event.">
                        <a style="font-weight:bold"
                           href="{{site.data.fhir.path}}adverseevent-definitions.html#AdverseEvent.outcome">AdverseEvent.outcome</a>
                     </span>
                     <br/>0..1 <a href="{{site.data.fhir.path}}datatypes.html#CodeableConcept">CodeableConcept</a>
                     <br/>Binding: <a href="http://hl7.org/fhir/ValueSet/adverse-event-outcome">AdverseEventOutcome</a> 
                     <a href="{{site.data.fhir.path}}terminologies.html#required">required</a>
                  </td>
                  <td>
                     <p>AdverseEvent.outcome</p>
                  </td>
                  <td>Additional outcomes or seriousness codes would be specified</td>
               </tr>
               <tr>
                  <th>Involves Cancer</th>
                  <td>
                     <span style="font-weight:bold"
                           title="An indication the serious event was associated with the development of cancer.">
                        <a href="https://library.cdisc.org/api/mdr/cdashig/2-1/domains/AE/fields/AESCAN">AESCAN</a>
                     </span>
                     <br/>Core: O<br/>Type: Char</td>
                  <td>
                     <span style="font-weight:bold"
                           title="Was the serious event associated with the development of cancer?">
                        <a href="https://library.cdisc.org/api/mdr/sdtmig/3-2/datasets/AE/variables/AESCAN">AESCAN</a>
                     </span>
                     <br/>Core: Perm<br/>Type: Char</td>
                  <td>
                     <span title="Describes the type of outcome from the adverse event.">
                        <a style="font-weight:bold"
                           href="{{site.data.fhir.path}}adverseevent-definitions.html#AdverseEvent.outcome">AdverseEvent.outcome</a>
                     </span>
                     <br/>0..1 <a href="{{site.data.fhir.path}}datatypes.html#CodeableConcept">CodeableConcept</a>
                     <br/>Binding: <a href="http://hl7.org/fhir/ValueSet/adverse-event-outcome">AdverseEventOutcome</a> 
                     <a href="{{site.data.fhir.path}}terminologies.html#required">required</a>
                  </td>
                  <td>
                     <p>AdverseEvent.outcome</p>
                  </td>
                  <td>Additional outcomes or seriousness codes would be specified</td>
               </tr>
               <tr>
                  <th>Occurred with Overdose</th>
                  <td>
                     <span style="font-weight:bold"
                           title="An indication the serious event occurred with an overdose.">
                        <a href="https://library.cdisc.org/api/mdr/cdashig/2-1/domains/AE/fields/AESOD">AESOD</a>
                     </span>
                     <br/>Core: O<br/>Type: Char</td>
                  <td>
                     <span style="font-weight:bold"
                           title="Did the serious event occur with an overdose?">
                        <a href="https://library.cdisc.org/api/mdr/sdtmig/3-2/datasets/AE/variables/AESOD">AESOD</a>
                     </span>
                     <br/>Core: Perm<br/>Type: Char</td>
                  <td>
                     <span title="AdverseEvent.suspectEntity.causalityProductRelatedness.">
                        <a style="font-weight:bold"
                           href="{{site.data.fhir.path}}adverseevent-definitions.html#AdverseEvent.suspectEntity.causality.productRelatedness">AdverseEvent.suspectEntity.causality.productRelatedness</a>
                     </span>
                     <br/>0..1 <a href="{{site.data.fhir.path}}datatypes.html#string">string</a>
                  </td>
                  <td>
                     <p>AdverseEvent.suspectEntity.causality.productRelatedness</p>
                  </td>
                  <td>Product Relatedness implies that the product is involved in the AE, but it doesn't indicate overdose.   After looking through other fields, it does not look like there is a field that would cover this situation.   In studies, OD  would be a reason why the AE was marked as an SAE.</td>
               </tr>
               <tr>
                  <th>AE Causality</th>
                  <td>
                     <span style="font-weight:bold"
                           title="An indication the study treatment had a causal effect on the adverse event, as determined by the clinician/investigator.">
                        <a href="https://library.cdisc.org/api/mdr/cdashig/2-1/domains/AE/fields/AEREL">AEREL</a>
                     </span>
                     <br/>Core: HR<br/>Type: Char</td>
                  <td>
                     <span style="font-weight:bold"
                           title="Records the investigator's opinion as to the causality of the event to the treatment. ICH E2A and E2B examples include NOT RELATED, UNLIKELY RELATED, POSSIBLY RELATED, RELATED. Controlled Terminology may be defined in the future. Check with regulatory authority for population of this variable.">
                        <a href="https://library.cdisc.org/api/mdr/sdtmig/3-2/datasets/AE/variables/AEREL">AEREL</a>
                     </span>
                     <br/>Core: Exp<br/>Type: Char</td>
                  <td>
                     <span title="AdverseEvent.suspectEntity.causalityProductRelatedness.">
                        <a style="font-weight:bold"
                           href="{{site.data.fhir.path}}adverseevent-definitions.html#AdverseEvent.suspectEntity.causality.productRelatedness">AdverseEvent.suspectEntity.causality.productRelatedness</a>
                     </span>
                     <br/>0..1 <a href="{{site.data.fhir.path}}datatypes.html#string">string</a>
                  </td>
                  <td>
                     <p>AdverseEvent.suspectEntity.causality.productRelatedness|AdverseEvent.suspectEntity.causality.assessment with binding to  AdverseEventCausalityAssessment value set</p>
                  </td>
                  <td>Reasonable to map to both.  Information could be useful in either of these fields.</td>
               </tr>
               <tr>
                  <th>Action Taken with Study Treatment</th>
                  <td>
                     <span style="font-weight:bold"
                           title="A description of the action taken with study treatment as a result of the event.">
                        <a href="https://library.cdisc.org/api/mdr/cdashig/2-1/domains/AE/fields/AEACN">AEACN</a>
                     </span>
                     <br/>Core: R/C<br/>Type: Char</td>
                  <td>
                     <span style="font-weight:bold"
                           title="Describes changes to the study treatment as a result of the event. AEACN is specifically for the relationship to study treatment. AEACNOTH is for actions unrelated to dose adjustments of study treatment. Examples of AEACN values include ICH E2B values: DRUG WITHDRAWN, DOSE REDUCED, DOSE INCREASED, DOSE NOT CHANGED, UNKNOWN or NOT APPLICABLE.">
                        <a href="https://library.cdisc.org/api/mdr/sdtmig/3-2/datasets/AE/variables/AEACN">AEACN</a>
                     </span>
                     <br/>Core: Exp<br/>Type: Char</td>
                  <td>
                     <span title="May be used to represent additional information that is not part of the basic definition of the resource. To make the use of extensions safe and manageable, there is a strict set of governance  applied to the definition and use of extensions. Though any implementer can define an extension, there is a set of requirements that SHALL be met as part of the definition of the extension.">
                        <a style="font-weight:bold"
                           href="{{site.data.fhir.path}}adverseevent-definitions.html#AdverseEvent.extension">AdverseEvent.extension</a>
                     </span>
                     <br/>0..* <a href="{{site.data.fhir.path}}datatypes.html#Extension">Extension</a>
                  </td>
                  <td>
                     <p>AdverseEvent.extension(AdverseEvent.mitigatingAction).extension(item).valueCodeableConcept</p>
                  </td>
                  <td>Pre-adopting R5 capability via a standard extension.  Note that the extension captures all actions taken, so filtration would be needed to select only those related to study treatment</td>
               </tr>
               <tr>
                  <th>Actions Taken with Device</th>
                  <td>
                     <span style="font-weight:bold"
                           title="A description of the action taken, with respect to a device used in a study (which may or may not be the device under study), as a result of the event.">
                        <a href="https://library.cdisc.org/api/mdr/cdashig/2-1/domains/AE/fields/AEACNDEV">AEACNDEV</a>
                     </span>
                     <br/>Core: O<br/>Type: Char</td>
                  <td>
                     <span style="font-weight:bold">SUPPAE.QVAL</span>
                  </td>
                  <td>
                     <span title="May be used to represent additional information that is not part of the basic definition of the resource. To make the use of extensions safe and manageable, there is a strict set of governance  applied to the definition and use of extensions. Though any implementer can define an extension, there is a set of requirements that SHALL be met as part of the definition of the extension.">
                        <a style="font-weight:bold"
                           href="{{site.data.fhir.path}}adverseevent-definitions.html#AdverseEvent.extension">AdverseEvent.extension</a>
                     </span>
                     <br/>0..* <a href="{{site.data.fhir.path}}datatypes.html#Extension">Extension</a>
                  </td>
                  <td>
                     <p>AdverseEvent.extension(AdverseEvent.mitigatingAction).extension(item).valueCodeableConcept</p>
                  </td>
                  <td>Pre-adopting R5 capability via a standard extension.  Note that the extension captures all actions taken, so filtration would be needed to select only those related to devices</td>
               </tr>
               <tr>
                  <th>Other Action Taken</th>
                  <td>
                     <span style="font-weight:bold"
                           title="A description of other action taken as a result of the event that is unrelated to dose adjustments of the study treatment.">
                        <a href="https://library.cdisc.org/api/mdr/cdashig/2-1/domains/AE/fields/AEACNOTH">AEACNOTH</a>
                     </span>
                     <br/>Core: O<br/>Type: Char</td>
                  <td>
                     <span style="font-weight:bold"
                           title="Describes other actions taken as a result of the event that are unrelated to dose adjustments of study treatment. Usually reported as free text. Example: &#34;TREATMENT UNBLINDED. PRIMARY CARE PHYSICIAN NOTIFIED.&#34;">
                        <a href="https://library.cdisc.org/api/mdr/sdtmig/3-2/datasets/AE/variables/AEACNOTH">AEACNOTH</a>
                     </span>
                     <br/>Core: Perm<br/>Type: Char</td>
                  <td>
                     <span title="May be used to represent additional information that is not part of the basic definition of the resource. To make the use of extensions safe and manageable, there is a strict set of governance  applied to the definition and use of extensions. Though any implementer can define an extension, there is a set of requirements that SHALL be met as part of the definition of the extension.">
                        <a style="font-weight:bold"
                           href="{{site.data.fhir.path}}adverseevent-definitions.html#AdverseEvent.extension">AdverseEvent.extension</a>
                     </span>
                     <br/>0..* <a href="{{site.data.fhir.path}}datatypes.html#Extension">Extension</a>
                  </td>
                  <td>
                     <p>AdverseEvent.extension(AdverseEvent.mitigatingAction).extension(item).valueCodeableConcept</p>
                  </td>
                  <td>Pre-adopting R5 capability via a standard extension.  Note that the extension captures all actions taken, so filtration would be needed to exclude actions related to study treatment or device</td>
               </tr>
               <tr>
                  <th>Outcome of Adverse Event</th>
                  <td>
                     <span style="font-weight:bold"
                           title="A description of the outcome of an event.">
                        <a href="https://library.cdisc.org/api/mdr/cdashig/2-1/domains/AE/fields/AEOUT">AEOUT</a>
                     </span>
                     <br/>Core: R/C<br/>Type: Char</td>
                  <td>
                     <span style="font-weight:bold"
                           title="Description of the outcome of an event.">
                        <a href="https://library.cdisc.org/api/mdr/sdtmig/3-2/datasets/AE/variables/AEOUT">AEOUT</a>
                     </span>
                     <br/>Core: Perm<br/>Type: Char</td>
                  <td>
                     <span title="Describes the type of outcome from the adverse event.">
                        <a style="font-weight:bold"
                           href="{{site.data.fhir.path}}adverseevent-definitions.html#AdverseEvent.outcome">AdverseEvent.outcome</a>
                     </span>
                     <br/>0..1 <a href="{{site.data.fhir.path}}datatypes.html#CodeableConcept">CodeableConcept</a>
                     <br/>Binding: <a href="http://hl7.org/fhir/ValueSet/adverse-event-outcome">AdverseEventOutcome</a> 
                     <a href="{{site.data.fhir.path}}terminologies.html#required">required</a>
                  </td>
                  <td>
                     <p>AdverseEvent.outcome</p>
                  </td>
                  <td>The coded equivalents matching up the CDISC controlled terminology. Meaning, in the EHR we may not have value-based coordination from FHIR-to-CDISC</td>
               </tr>
               <tr>
                  <th>AE Caused Study Discontinuation</th>
                  <td>
                     <span style="font-weight:bold"
                           title="An indication whether the event caused the subject to discontinue from the study.">
                        <a href="https://library.cdisc.org/api/mdr/cdashig/2-1/domains/AE/fields/AEDIS">AEDIS</a>
                     </span>
                     <br/>Core: O<br/>Type: Char</td>
                  <td>
                     <span style="font-weight:bold">SUPPAE.QVAL</span>
                  </td>
                  <td colspan="2" style="background-color:LightGray">An extension would be added that would be study specific as the relationship might vary study to study.</td>
                  <td/>
               </tr>
               <tr>
                  <th>AE Related to Non-Study Treatment</th>
                  <td>
                     <span style="font-weight:bold"
                           title="An indication whether in the investigator's opinion the event may have been due to a treatment other than study treatment.">
                        <a href="https://library.cdisc.org/api/mdr/cdashig/2-1/domains/AE/fields/AERLNSYN">AERLNSYN</a>
                     </span>
                     <br/>Core: O<br/>Type: Char</td>
                  <td>
                     <span style="font-weight:bold"/>
                  </td>
                  <td colspan="2" style="background-color:LightGray">An extension would be added that would be study specific as the relationship might vary study to study.</td>
                  <td/>
               </tr>
               <tr>
                  <th>AE Relationship to Non-Study Treatment</th>
                  <td>
                     <span style="font-weight:bold"
                           title="Description of the investigator's opinion as to whether the adverse event may have been due to a treatment other than study treatment.">
                        <a href="https://library.cdisc.org/api/mdr/cdashig/2-1/domains/AE/fields/AERELNST">AERELNST</a>
                     </span>
                     <br/>Core: O<br/>Type: Char</td>
                  <td>
                     <span style="font-weight:bold"
                           title="Records the investigator's opinion as to whether the event may have been due to a treatment other than study drug. May be reported as free text. Example: &#34;MORE LIKELY RELATED TO ASPIRIN USE.&#34;.">
                        <a href="https://library.cdisc.org/api/mdr/sdtmig/3-2/datasets/AE/variables/AERELNST">AERELNST</a>
                     </span>
                     <br/>Core: Perm<br/>Type: Char</td>
                  <td colspan="2" style="background-color:LightGray">An extension would be added that would be study specific as the relationship might vary study to study.</td>
                  <td/>
               </tr>
               <tr>
                  <th>Adverse Event of Special Interest</th>
                  <td>
                     <span style="font-weight:bold"
                           title="An adverse event of special interest (serious or non-serious) is one of scientific and medical concern specific to the sponsor's product or program, for which ongoing monitoring and rapid communication by the investigator to the sponsor can be appropriate. Such an event might warrant further investigation in order to characterize and understand it. Depending on the nature of the event, rapid communication by the trial sponsor to other parties (e.g., regulators) might also be warranted.">
                        <a href="https://library.cdisc.org/api/mdr/cdashig/2-1/domains/AE/fields/AESI">AESI</a>
                     </span>
                     <br/>Core: O<br/>Type: Char</td>
                  <td>
                     <span style="font-weight:bold"/>
                  </td>
                  <td colspan="2" style="background-color:LightGray">Add extension, probably on a study-specific link.  (Adverse events of interst to one study wouldn't necessarily be of interest to others.)</td>
                  <td/>
               </tr>
               <tr>
                  <th>Pattern of Adverse Event</th>
                  <td>
                     <span style="font-weight:bold"
                           title="Used to indicate the pattern of the event over time.">
                        <a href="https://library.cdisc.org/api/mdr/cdashig/2-1/domains/AE/fields/AEPATT">AEPATT</a>
                     </span>
                     <br/>Core: O<br/>Type: Char</td>
                  <td>
                     <span style="font-weight:bold"
                           title="Used to indicate the pattern of the event over time. Examples: INTERMITTENT, CONTINUOUS, SINGLE EVENT.">
                        <a href="https://library.cdisc.org/api/mdr/sdtmig/3-2/datasets/AE/variables/AEPATT">AEPATT</a>
                     </span>
                     <br/>Core: Perm<br/>Type: Char</td>
                  <td colspan="2" style="background-color:LightGray">An extension would be added that would be study specific as the relationship might vary study to study.</td>
                  <td/>
               </tr>
               <tr>
                  <th>Concomitant or Additional Trtmnt Given</th>
                  <td>
                     <span style="font-weight:bold"
                           title="An indication whether a concomitant or additional treatment given because of the occurrence of the event.">
                        <a href="https://library.cdisc.org/api/mdr/cdashig/2-1/domains/AE/fields/AECONTRT">AECONTRT</a>
                     </span>
                     <br/>Core: O<br/>Type: Char</td>
                  <td>
                     <span style="font-weight:bold"
                           title="Was another treatment given because of the occurrence of the event?">
                        <a href="https://library.cdisc.org/api/mdr/sdtmig/3-2/datasets/AE/variables/AECONTRT">AECONTRT</a>
                     </span>
                     <br/>Core: Perm<br/>Type: Char</td>
                  <td>
                     <span title="May be used to represent additional information that is not part of the basic definition of the resource. To make the use of extensions safe and manageable, there is a strict set of governance  applied to the definition and use of extensions. Though any implementer can define an extension, there is a set of requirements that SHALL be met as part of the definition of the extension.">
                        <a style="font-weight:bold"
                           href="{{site.data.fhir.path}}adverseevent-definitions.html#AdverseEvent.extension">AdverseEvent.extension</a>
                     </span>
                     <br/>0..* <a href="{{site.data.fhir.path}}datatypes.html#Extension">Extension</a>
                  </td>
                  <td>
                     <p>AdverseEvent.extension(AdverseEvent.mitigatingAction).extension(item).valueCodeableConcept</p>
                  </td>
                  <td>R5 pre-adoption extension.  Note that mitigatingActions aren't necessarily treatments, so codes would need to be examined to only map those that were treatments</td>
               </tr>
               <tr>
                  <th>AE Modified Reported Term</th>
                  <td>
                     <span style="font-weight:bold"
                           title="If the value for AETERM is modified to facilitate coding, then AEMODIFY will contain the modified text.">
                        <a href="https://library.cdisc.org/api/mdr/cdashig/2-1/domains/AE/fields/AEMODIFY">AEMODIFY</a>
                     </span>
                     <br/>Core: R/C<br/>Type: Char</td>
                  <td>
                     <span style="font-weight:bold"
                           title="If AETERM is modified to facilitate coding, then AEMODIFY will contain the modified text.">
                        <a href="https://library.cdisc.org/api/mdr/sdtmig/3-2/datasets/AE/variables/AEMODIFY">AEMODIFY</a>
                     </span>
                     <br/>Core: Perm<br/>Type: Char</td>
                  <td colspan="2" style="background-color:LightGray">The fact one of the codings was modified would be captured as an extension</td>
                  <td/>
               </tr>
               <tr>
                  <th>AE Dictionary-Derived Term</th>
                  <td>
                     <span style="font-weight:bold"
                           title="The dictionary or standardized text description of AETERM or the modified topic variable (AEMODIFY), if applicable.">
                        <a href="https://library.cdisc.org/api/mdr/cdashig/2-1/domains/AE/fields/AEDECOD">AEDECOD</a>
                     </span>
                     <br/>Core: O<br/>Type: Char</td>
                  <td>
                     <span style="font-weight:bold"
                           title="Dictionary-derived text description of AETERM or AEMODIFY. Equivalent to the Preferred Term (PT in MedDRA). The sponsor is expected to provide the dictionary name and version used to map the terms utilizing the define.xml external codelist attributes.">
                        <a href="https://library.cdisc.org/api/mdr/sdtmig/3-2/datasets/AE/variables/AEDECOD">AEDECOD</a>
                     </span>
                     <br/>Core: Req<br/>Type: Char<br/>values: MedDRA</td>
                  <td>
                     <span title="Identification of the condition, problem or diagnosis.">
                        <a style="font-weight:bold"
                           href="{{site.data.fhir.path}}condition-definitions.html#Condition.code">Condition.code</a>
                     </span>
                     <br/>0..1 <a href="{{site.data.fhir.path}}datatypes.html#CodeableConcept">CodeableConcept</a>
                     <br/>Binding: <a href="http://hl7.org/fhir/ValueSet/condition-code">ConditionKind</a> 
                     <a href="{{site.data.fhir.path}}terminologies.html#example">example</a>
                  </td>
                  <td>
                     <p>AdverseEvent.resultingCondition.resolve().code</p>
                  </td>
                  <td>Sponsors will populate this through the coding process and is applicable to items using MedDRA coding.</td>
               </tr>
               <tr>
                  <th>AE Lowest Level Term </th>
                  <td>
                     <span style="font-weight:bold"
                           title="MedDRA text description of the Lowest Level Term.">
                        <a href="https://library.cdisc.org/api/mdr/cdashig/2-1/domains/AE/fields/AELLT">AELLT</a>
                     </span>
                     <br/>Core: R/C<br/>Type: Char</td>
                  <td>
                     <span style="font-weight:bold"
                           title="Dictionary-derived text description of the Lowest Level Term.">
                        <a href="https://library.cdisc.org/api/mdr/sdtmig/3-2/datasets/AE/variables/AELLT">AELLT</a>
                     </span>
                     <br/>Core: Exp<br/>Type: Char<br/>values: MedDRA</td>
                  <td>
                     <span title="Identification of the condition, problem or diagnosis.">
                        <a style="font-weight:bold"
                           href="{{site.data.fhir.path}}condition-definitions.html#Condition.code">Condition.code</a>
                     </span>
                     <br/>0..1 <a href="{{site.data.fhir.path}}datatypes.html#CodeableConcept">CodeableConcept</a>
                     <br/>Binding: <a href="http://hl7.org/fhir/ValueSet/condition-code">ConditionKind</a> 
                     <a href="{{site.data.fhir.path}}terminologies.html#example">example</a>
                  </td>
                  <td>
                     <p>AdverseEvent.resultingCondition.resolve().code</p>
                  </td>
                  <td>Sponsors will populate this through the coding process and is applicable to items using MedDRA coding.</td>
               </tr>
               <tr>
                  <th>AE Lowest Level Term Code</th>
                  <td>
                     <span style="font-weight:bold" title="MedDRA Lowest Level Term code.">
                        <a href="https://library.cdisc.org/api/mdr/cdashig/2-1/domains/AE/fields/AELLTCD">AELLTCD</a>
                     </span>
                     <br/>Core: R/C<br/>Type: Num</td>
                  <td>
                     <span style="font-weight:bold"
                           title="Dictionary-derived code for the Lowest Level Term.">
                        <a href="https://library.cdisc.org/api/mdr/sdtmig/3-2/datasets/AE/variables/AELLTCD">AELLTCD</a>
                     </span>
                     <br/>Core: Exp<br/>Type: Num<br/>values: MedDRA</td>
                  <td>
                     <span title="Identification of the condition, problem or diagnosis.">
                        <a style="font-weight:bold"
                           href="{{site.data.fhir.path}}condition-definitions.html#Condition.code">Condition.code</a>
                     </span>
                     <br/>0..1 <a href="{{site.data.fhir.path}}datatypes.html#CodeableConcept">CodeableConcept</a>
                     <br/>Binding: <a href="http://hl7.org/fhir/ValueSet/condition-code">ConditionKind</a> 
                     <a href="{{site.data.fhir.path}}terminologies.html#example">example</a>
                  </td>
                  <td>
                     <p>AdverseEvent.resultingCondition.resolve().code</p>
                  </td>
                  <td>Sponsors will populate this through the coding process and is applicable to items using MedDRA coding.</td>
               </tr>
               <tr>
                  <th>AE Preferred Term Code</th>
                  <td>
                     <span style="font-weight:bold" title="MedDRA code for the Preferred Term.">
                        <a href="https://library.cdisc.org/api/mdr/cdashig/2-1/domains/AE/fields/AEPTCD">AEPTCD</a>
                     </span>
                     <br/>Core: R/C<br/>Type: Num</td>
                  <td>
                     <span style="font-weight:bold"
                           title="Dictionary-derived code for the Preferred Term.">
                        <a href="https://library.cdisc.org/api/mdr/sdtmig/3-2/datasets/AE/variables/AEPTCD">AEPTCD</a>
                     </span>
                     <br/>Core: Exp<br/>Type: Num<br/>values: MedDRA</td>
                  <td>
                     <span title="Identification of the condition, problem or diagnosis.">
                        <a style="font-weight:bold"
                           href="{{site.data.fhir.path}}condition-definitions.html#Condition.code">Condition.code</a>
                     </span>
                     <br/>0..1 <a href="{{site.data.fhir.path}}datatypes.html#CodeableConcept">CodeableConcept</a>
                     <br/>Binding: <a href="http://hl7.org/fhir/ValueSet/condition-code">ConditionKind</a> 
                     <a href="{{site.data.fhir.path}}terminologies.html#example">example</a>
                  </td>
                  <td>
                     <p>AdverseEvent.resultingCondition.resolve().code</p>
                  </td>
                  <td>Sponsors will populate this through the coding process and is applicable to items using MedDRA coding.</td>
               </tr>
               <tr>
                  <th>AE High Level Term</th>
                  <td>
                     <span style="font-weight:bold"
                           title="MedDRA text description of the High Level Term from the primary path.">
                        <a href="https://library.cdisc.org/api/mdr/cdashig/2-1/domains/AE/fields/AEHLT">AEHLT</a>
                     </span>
                     <br/>Core: R/C<br/>Type: Char</td>
                  <td>
                     <span style="font-weight:bold"
                           title="Dictionary-derived text description of the High Level Term for the primary System Organ Class.">
                        <a href="https://library.cdisc.org/api/mdr/sdtmig/3-2/datasets/AE/variables/AEHLT">AEHLT</a>
                     </span>
                     <br/>Core: Exp<br/>Type: Char<br/>values: MedDRA</td>
                  <td>
                     <span title="Identification of the condition, problem or diagnosis.">
                        <a style="font-weight:bold"
                           href="{{site.data.fhir.path}}condition-definitions.html#Condition.code">Condition.code</a>
                     </span>
                     <br/>0..1 <a href="{{site.data.fhir.path}}datatypes.html#CodeableConcept">CodeableConcept</a>
                     <br/>Binding: <a href="http://hl7.org/fhir/ValueSet/condition-code">ConditionKind</a> 
                     <a href="{{site.data.fhir.path}}terminologies.html#example">example</a>
                  </td>
                  <td>
                     <p>AdverseEvent.resultingCondition.resolve().code</p>
                  </td>
                  <td>Sponsors will populate this through the coding process and is applicable to items using MedDRA coding.</td>
               </tr>
               <tr>
                  <th>AE High Level Term Code</th>
                  <td>
                     <span style="font-weight:bold"
                           title="MedDRA High Level Term code from the primary path.">
                        <a href="https://library.cdisc.org/api/mdr/cdashig/2-1/domains/AE/fields/AEHLTCD">AEHLTCD</a>
                     </span>
                     <br/>Core: R/C<br/>Type: Num</td>
                  <td>
                     <span style="font-weight:bold"
                           title="Dictionary-derived code for the High Level Term for the primary System Organ Class.">
                        <a href="https://library.cdisc.org/api/mdr/sdtmig/3-2/datasets/AE/variables/AEHLTCD">AEHLTCD</a>
                     </span>
                     <br/>Core: Exp<br/>Type: Num<br/>values: MedDRA</td>
                  <td>
                     <span title="Identification of the condition, problem or diagnosis.">
                        <a style="font-weight:bold"
                           href="{{site.data.fhir.path}}condition-definitions.html#Condition.code">Condition.code</a>
                     </span>
                     <br/>0..1 <a href="{{site.data.fhir.path}}datatypes.html#CodeableConcept">CodeableConcept</a>
                     <br/>Binding: <a href="http://hl7.org/fhir/ValueSet/condition-code">ConditionKind</a> 
                     <a href="{{site.data.fhir.path}}terminologies.html#example">example</a>
                  </td>
                  <td>
                     <p>AdverseEvent.resultingCondition.resolve().code</p>
                  </td>
                  <td>Sponsors will populate this through the coding process and is applicable to items using MedDRA coding.</td>
               </tr>
               <tr>
                  <th>AE High Level Group Term</th>
                  <td>
                     <span style="font-weight:bold"
                           title="MedDRA text description of the High Level Group Term from the primary path.">
                        <a href="https://library.cdisc.org/api/mdr/cdashig/2-1/domains/AE/fields/AEHLGT">AEHLGT</a>
                     </span>
                     <br/>Core: R/C<br/>Type: Char</td>
                  <td>
                     <span style="font-weight:bold"
                           title="Dictionary-derived text description of the High Level Group Term for the primary System Organ Class.">
                        <a href="https://library.cdisc.org/api/mdr/sdtmig/3-2/datasets/AE/variables/AEHLGT">AEHLGT</a>
                     </span>
                     <br/>Core: Exp<br/>Type: Char<br/>values: MedDRA</td>
                  <td>
                     <span title="Identification of the condition, problem or diagnosis.">
                        <a style="font-weight:bold"
                           href="{{site.data.fhir.path}}condition-definitions.html#Condition.code">Condition.code</a>
                     </span>
                     <br/>0..1 <a href="{{site.data.fhir.path}}datatypes.html#CodeableConcept">CodeableConcept</a>
                     <br/>Binding: <a href="http://hl7.org/fhir/ValueSet/condition-code">ConditionKind</a> 
                     <a href="{{site.data.fhir.path}}terminologies.html#example">example</a>
                  </td>
                  <td>
                     <p>AdverseEvent.resultingCondition.resolve().code</p>
                  </td>
                  <td>Sponsors will populate this through the coding process and is applicable to items using MedDRA coding.</td>
               </tr>
               <tr>
                  <th>AE High Level Group Term Code</th>
                  <td>
                     <span style="font-weight:bold"
                           title="MedDRA High Level Group Term code from the primary path.">
                        <a href="https://library.cdisc.org/api/mdr/cdashig/2-1/domains/AE/fields/AEHLGTCD">AEHLGTCD</a>
                     </span>
                     <br/>Core: R/C<br/>Type: Num</td>
                  <td>
                     <span style="font-weight:bold"
                           title="Dictionary-derived code for the High Level Group Term for the primary System Organ Class.">
                        <a href="https://library.cdisc.org/api/mdr/sdtmig/3-2/datasets/AE/variables/AEHLGTCD">AEHLGTCD</a>
                     </span>
                     <br/>Core: Exp<br/>Type: Num<br/>values: MedDRA</td>
                  <td>
                     <span title="Identification of the condition, problem or diagnosis.">
                        <a style="font-weight:bold"
                           href="{{site.data.fhir.path}}condition-definitions.html#Condition.code">Condition.code</a>
                     </span>
                     <br/>0..1 <a href="{{site.data.fhir.path}}datatypes.html#CodeableConcept">CodeableConcept</a>
                     <br/>Binding: <a href="http://hl7.org/fhir/ValueSet/condition-code">ConditionKind</a> 
                     <a href="{{site.data.fhir.path}}terminologies.html#example">example</a>
                  </td>
                  <td>
                     <p>AdverseEvent.resultingCondition.resolve().code</p>
                  </td>
                  <td>Sponsors will populate this through the coding process and is applicable to items using MedDRA coding.</td>
               </tr>
               <tr>
                  <th>AE Primary System Organ Class</th>
                  <td>
                     <span style="font-weight:bold"
                           title="MedDRA Primary System Organ Class text description associated with the event.">
                        <a href="https://library.cdisc.org/api/mdr/cdashig/2-1/domains/AE/fields/AESOC">AESOC</a>
                     </span>
                     <br/>Core: R/C<br/>Type: Char</td>
                  <td>
                     <span style="font-weight:bold"
                           title="Dictionary-derived text description of the primary System Organ Class. Will be the same as AEBODSYS if the primary SOC was used for analysis.">
                        <a href="https://library.cdisc.org/api/mdr/sdtmig/3-2/datasets/AE/variables/AESOC">AESOC</a>
                     </span>
                     <br/>Core: Exp<br/>Type: Char<br/>values: MedDRA</td>
                  <td>
                     <span title="Identification of the condition, problem or diagnosis.">
                        <a style="font-weight:bold"
                           href="{{site.data.fhir.path}}condition-definitions.html#Condition.code">Condition.code</a>
                     </span>
                     <br/>0..1 <a href="{{site.data.fhir.path}}datatypes.html#CodeableConcept">CodeableConcept</a>
                     <br/>Binding: <a href="http://hl7.org/fhir/ValueSet/condition-code">ConditionKind</a> 
                     <a href="{{site.data.fhir.path}}terminologies.html#example">example</a>
                  </td>
                  <td>
                     <p>AdverseEvent.resultingCondition.resolve().code</p>
                  </td>
                  <td>Sponsors will populate this through the coding process and is applicable to items using MedDRA coding.</td>
               </tr>
               <tr>
                  <th>AE Primary System Organ Class Code</th>
                  <td>
                     <span style="font-weight:bold"
                           title="MedDRA code for the primary System Organ Class.">
                        <a href="https://library.cdisc.org/api/mdr/cdashig/2-1/domains/AE/fields/AESOCCD">AESOCCD</a>
                     </span>
                     <br/>Core: R/C<br/>Type: Num</td>
                  <td>
                     <span style="font-weight:bold"
                           title="Dictionary-derived code for the primary System Organ Class. Will be the same as AEBDSYCD if the primary SOC was used for analysis.">
                        <a href="https://library.cdisc.org/api/mdr/sdtmig/3-2/datasets/AE/variables/AESOCCD">AESOCCD</a>
                     </span>
                     <br/>Core: Exp<br/>Type: Num<br/>values: MedDRA</td>
                  <td>
                     <span title="Identification of the condition, problem or diagnosis.">
                        <a style="font-weight:bold"
                           href="{{site.data.fhir.path}}condition-definitions.html#Condition.code">Condition.code</a>
                     </span>
                     <br/>0..1 <a href="{{site.data.fhir.path}}datatypes.html#CodeableConcept">CodeableConcept</a>
                     <br/>Binding: <a href="http://hl7.org/fhir/ValueSet/condition-code">ConditionKind</a> 
                     <a href="{{site.data.fhir.path}}terminologies.html#example">example</a>
                  </td>
                  <td>
                     <p>AdverseEvent.resultingCondition.resolve().code</p>
                  </td>
                  <td>Sponsors will populate this through the coding process and is applicable to items using MedDRA coding.</td>
               </tr>
               <tr>
                  <th>Any Other Actions Taken</th>
                  <td>
                     <span style="font-weight:bold"
                           title="An indication whether any other actions were taken in response to the adverse event that were unrelated to study treatment dose changes or other non-study treatments given because of this adverse event.">
                        <a href="https://library.cdisc.org/api/mdr/cdashig/2-1/domains/AE/fields/AEACNOYN">AEACNOYN</a>
                     </span>
                     <br/>Core: O<br/>Type: Char</td>
                  <td>
                     <span style="font-weight:bold"/>
                  </td>
                  <td>
                     <span title="May be used to represent additional information that is not part of the basic definition of the resource. To make the use of extensions safe and manageable, there is a strict set of governance  applied to the definition and use of extensions. Though any implementer can define an extension, there is a set of requirements that SHALL be met as part of the definition of the extension.">
                        <a style="font-weight:bold"
                           href="{{site.data.fhir.path}}adverseevent-definitions.html#AdverseEvent.extension">AdverseEvent.extension</a>
                     </span>
                     <br/>0..* <a href="{{site.data.fhir.path}}datatypes.html#Extension">Extension</a>
                  </td>
                  <td>
                     <p>AdverseEvent.extension(AdverseEvent.mitigatingAction).extension(item).valueCodeableConcept</p>
                  </td>
                  <td>R5 pre-adoption extension.  Note that mitigatingActions also include treatments, so codes would need to be examined to only map those that were NOT treatments</td>
               </tr>
            </tbody>
         </table>
      </div>
      <div id="mapping">
         <table class="grid"
                style="width:150%;word-break:break-word;table-layout:fixed;">
            <col style="width:15%"/>
            <col style="width:15%;"/>
            <col style="width:20%;"/>
            <col style="width:7.5%"/>
            <col style="width:7.5%"/>
            <col style="width:35%;"/>
            <thead style="background-color:PowderBlue;">
               <tr>
                  <th/>
                  <th colspan="2" style="text-align:center;">FHIR map (or gap)</th>
                  <th colspan="2" style="text-align:center;">CDISC</th>
                  <th rowspan="2" style="vertical-align:bottom;text-align:center;">Comment</th>
               </tr>
               <tr style="text-align:center;">
                  <th style="text-align:center;">Label</th>
                  <th style="text-align:center;">Element</th>
                  <th style="text-align:center;">FHIRPath</th>
                  <th style="text-align:center;">CDASH</th>
                  <th style="text-align:center;">SDTM</th>
               </tr>
            </thead>
            <tbody>
               <tr>
                  <th>Study Identifier</th>
                  <td>
                     <span title="AdverseEvent.study.">
                        <a style="font-weight:bold"
                           href="{{site.data.fhir.path}}adverseevent-definitions.html#AdverseEvent.study">AdverseEvent.study</a>
                     </span>
                     <br/>0..* <a href="{{site.data.fhir.path}}references.html">Reference</a>
                  </td>
                  <td>
                     <p>AdverseEvent.study.resolve().partOf.resolve().identifier</p>
                     <p>ResearchSubject.where(subject=AdverseEvent.subject).study.resolve().partOf.resolve().identifier</p>
                  </td>
                  <td>
                     <span style="font-weight:bold" title="A unique identifier for a study.">
                        <a href="https://library.cdisc.org/api/mdr/cdashig/2-1/domains/AE/fields/STUDYID">STUDYID</a>
                     </span>
                     <br/>Core: HR<br/>Type: Char</td>
                  <td>
                     <span style="font-weight:bold" title="Unique identifier for a study.">
                        <a href="https://library.cdisc.org/api/mdr/sdtmig/3-2/datasets/AE/variables/STUDYID">STUDYID</a>
                     </span>
                     <br/>Core: Req<br/>Type: Char</td>
                  <td>Mapping is based on presumption that research subject will be tied to site-specific ResearchStudy, which will then be part of overall ResearchStudy.<br/>
                     <br/>The direct path using AdverseEvent.study will only exist if the system maintaining the AdverseEvent is aware of its relevance to the Study.    ResearchStudy links to Patient. Observation links to Patient. If the patients are the same, that establishes the linkage. There's also an extension that allows direct linkage to a 'study' from any resource - if the source system has actually established such a linkage.</td>
               </tr>
               <tr>
                  <th>Study Site Identifier</th>
                  <td>
                     <span title="A facility in which study activities are conducted.">
                        <a style="font-weight:bold"
                           href="{{site.data.fhir.path}}researchstudy-definitions.html#ResearchStudy.site">ResearchStudy.site</a>
                     </span>
                     <br/>0..* <a href="{{site.data.fhir.path}}references.html">Reference</a>
                  </td>
                  <td>
                     <p>AdverseEvent.study.resolve().identifier</p>
                     <p>ResearchSubject.where(subject=AdverseEvent.subject).study.resolve().identifier</p>
                  </td>
                  <td>
                     <span style="font-weight:bold"
                           title="A unique identifier for a site within a study.">
                        <a href="https://library.cdisc.org/api/mdr/cdashig/2-1/domains/AE/fields/SITEID">SITEID</a>
                     </span>
                     <br/>Core: HR<br/>Type: Char</td>
                  <td>
                     <span style="font-weight:bold"
                           title="Unique identifier for a site within a study.">
                        <a href="https://library.cdisc.org/api/mdr/sdtmig/3-2/datasets/DM/variables/SITEID">DM.SITEID</a>
                     </span>
                     <br/>Core: Req<br/>Type: Char</td>
                  <td>Mapping is based on presumption that research subject will be tied to site-specific ResearchStudy, which will then be part of overall ResearchStudy.<br/>
                     <br/>The direct path using AdverseEvent.study will only exist if the system maintaining the AdverseEvent is aware of its relevance to the Study.</td>
               </tr>
               <tr>
                  <th>Subject Identifier for the Study</th>
                  <td>
                     <span title="Identifiers assigned to this research subject for a study.">
                        <a style="font-weight:bold"
                           href="{{site.data.fhir.path}}researchsubject-definitions.html#ResearchSubject.identifier">ResearchSubject.identifier</a>
                     </span>
                     <br/>0..* <a href="{{site.data.fhir.path}}datatypes.html#Identifier">Identifier</a>
                  </td>
                  <td>
                     <p>ResearchSubject.where(individual=AdverseEvent.subject).identifier</p>
                  </td>
                  <td>
                     <span style="font-weight:bold"
                           title="A unique subject identifier within a site and a study.">
                        <a href="https://library.cdisc.org/api/mdr/cdashig/2-1/domains/AE/fields/SUBJID">SUBJID</a>
                     </span>
                     <br/>Core: HR<br/>Type: Char</td>
                  <td>
                     <span style="font-weight:bold"
                           title="Subject identifier, which must be unique within the study. Often the ID of the subject as recorded on a CRF.">
                        <a href="https://library.cdisc.org/api/mdr/sdtmig/3-2/datasets/DM/variables/SUBJID">DM.SUBJID</a>
                     </span>
                     <br/>Core: Req<br/>Type: Char</td>
                  <td>Research subject points to patient, adverse event points to patient. Adverse event points to study. Check to see if they are the same in order to establish linkage.  When extracting real world evidence either the extraction will be performed in a fully identified mode and de-identification will happen as a subsequent process or the de-identification will already have occurred. Any identify info in the resources will already have real world identification randomized or otherwise made nonsensitive. The mapping is referring to subject.reference not to the identifier element on the clinical resources.</td>
               </tr>
               <tr>
                  <th>Any Adverse Event</th>
                  <td colspan="2" style="background-color:LightGray">In FHIR, this would be determined by searching for AdverseEvents with a given subject (possibly also filtered by research study) and excluding those that were entered in error.  If a flag were necessary, it would be an extension on Study, not sent on AdverseEvent.  It might also be necessary to search for Condition instances, Observation instances, Encounters with particular reasons and other resources if the desire is to have the full set of potential adverse reactions.</td>
                  <td>
                     <span style="font-weight:bold"
                           title="An indication whether or not any AEs were experienced during the study.">
                        <a href="https://library.cdisc.org/api/mdr/cdashig/2-1/domains/AE/fields/AEYN">AEYN</a>
                     </span>
                     <br/>Core: O<br/>Type: Char</td>
                  <td>
                     <span style="font-weight:bold"/>
                  </td>
                  <td/>
               </tr>
               <tr>
                  <th>Category for Adverse Event</th>
                  <td>
                     <span title="The overall type of event, intended for search and filtering purposes.">
                        <a style="font-weight:bold"
                           href="{{site.data.fhir.path}}adverseevent-definitions.html#AdverseEvent.category">AdverseEvent.category</a>
                     </span>
                     <br/>0..* <a href="{{site.data.fhir.path}}datatypes.html#CodeableConcept">CodeableConcept</a>
                     <br/>Binding: <a href="http://hl7.org/fhir/ValueSet/adverse-event-category">AdverseEventCategory</a> 
                     <a href="{{site.data.fhir.path}}terminologies.html#extensible">extensible</a>
                  </td>
                  <td>
                     <p>AdverseEvent.category</p>
                  </td>
                  <td>
                     <span style="font-weight:bold"
                           title="A grouping of topic-variable values based on user-defined characteristics.">
                        <a href="https://library.cdisc.org/api/mdr/cdashig/2-1/domains/AE/fields/AECAT">AECAT</a>
                     </span>
                     <br/>Core: O<br/>Type: Char</td>
                  <td>
                     <span style="font-weight:bold"
                           title="Used to define a category of related records. Example: BLEEDING, NEUROPSYCHIATRIC.">
                        <a href="https://library.cdisc.org/api/mdr/sdtmig/3-2/datasets/AE/variables/AECAT">AECAT</a>
                     </span>
                     <br/>Core: Perm<br/>Type: Char</td>
                  <td>This is typically sponsor-specific and we would not expect this to come from the site.<br/>
                     <br/>In FHIR, an AdverseEvent can be categorized in as many ways as desired with whatever granularity is desired.  When converting from FHIR to CDASH, systems will need to look at the FHIR categories (and potentially other information) to determine how best to populate AECAT and AESCAT based on the study-designed categories (unless they've pre-arranged with the EHR to ensure it captures the same codes)</td>
               </tr>
               <tr>
                  <th>Subcategory for Adverse Event</th>
                  <td>
                     <span title="The overall type of event, intended for search and filtering purposes.">
                        <a style="font-weight:bold"
                           href="{{site.data.fhir.path}}adverseevent-definitions.html#AdverseEvent.category">AdverseEvent.category</a>
                     </span>
                     <br/>0..* <a href="{{site.data.fhir.path}}datatypes.html#CodeableConcept">CodeableConcept</a>
                     <br/>Binding: <a href="http://hl7.org/fhir/ValueSet/adverse-event-category">AdverseEventCategory</a> 
                     <a href="{{site.data.fhir.path}}terminologies.html#extensible">extensible</a>
                  </td>
                  <td>
                     <p>AdverseEvent.category</p>
                  </td>
                  <td>
                     <span style="font-weight:bold"
                           title="A sub-division of the AECAT values based on user-defined characteristics.">
                        <a href="https://library.cdisc.org/api/mdr/cdashig/2-1/domains/AE/fields/AESCAT">AESCAT</a>
                     </span>
                     <br/>Core: O<br/>Type: Char</td>
                  <td>
                     <span style="font-weight:bold"
                           title="A further categorization of adverse event. Example: NEUROLOGIC.">
                        <a href="https://library.cdisc.org/api/mdr/sdtmig/3-2/datasets/AE/variables/AESCAT">AESCAT</a>
                     </span>
                     <br/>Core: Perm<br/>Type: Char</td>
                  <td>This is typically sponsor-specific and we would not expect this to come from the site.<br/>
                     <br/>In FHIR, an AdverseEvent can be categorized in as many ways as desired with whatever granularity is desired.  When converting from FHIR to CDASH, systems will need to look at the FHIR categories (and potentially other information) to determine how best to populate AECAT and AESCAT based on the study-designed categories (unless they've pre-arranged with the EHR to ensure it captures the same codes)</td>
               </tr>
               <tr>
                  <th>AE Sponsor-Defined Identifier</th>
                  <td>
                     <span title="Business identifiers assigned to this adverse event by the performer or other systems which remain constant as the resource is updated and propagates from server to server.">
                        <a style="font-weight:bold"
                           href="{{site.data.fhir.path}}adverseevent-definitions.html#AdverseEvent.identifier">AdverseEvent.identifier</a>
                     </span>
                     <br/>0..1 <a href="{{site.data.fhir.path}}datatypes.html#Identifier">Identifier</a>
                  </td>
                  <td>
                     <p>AdverseEvent.identifier.where(assigner=sponsor).value</p>
                     <p>AdverseEvent.refID</p>
                  </td>
                  <td>
                     <span style="font-weight:bold"
                           title="A sponsor-defined identifier. In CDASH, This is typically used for preprinted or auto-generated numbers on the CRF, or any other type of identifier that does not already have a defined CDASH identifier field.">
                        <a href="https://library.cdisc.org/api/mdr/cdashig/2-1/domains/AE/fields/AESPID">AESPID</a>
                     </span>
                     <br/>Core: O<br/>Type: Char</td>
                  <td>
                     <span style="font-weight:bold"
                           title="Sponsor-defined identifier. It may be pre-printed on the CRF as an explicit line identifier or defined in the sponsor's operational database. Example: Line number on an Adverse Events page.">
                        <a href="https://library.cdisc.org/api/mdr/sdtmig/3-2/datasets/AE/variables/AESPID">AESPID</a>
                     </span>
                     <br/>Core: Perm<br/>Type: Char</td>
                  <td>The assigner of the identifier can be explicit or inferred by the Identifier.system.</td>
               </tr>
               <tr>
                  <th>Reported Term for the Adverse Event</th>
                  <td>
                     <span title="Identification of the condition, problem or diagnosis.">
                        <a style="font-weight:bold"
                           href="{{site.data.fhir.path}}condition-definitions.html#Condition.code">Condition.code</a>
                     </span>
                     <br/>0..1 <a href="{{site.data.fhir.path}}datatypes.html#CodeableConcept">CodeableConcept</a>
                     <br/>Binding: <a href="http://hl7.org/fhir/ValueSet/condition-code">ConditionKind</a> 
                     <a href="{{site.data.fhir.path}}terminologies.html#example">example</a>
                  </td>
                  <td>
                     <p>AdverseEvent.resultingCondition.resolve().code</p>
                  </td>
                  <td>
                     <span style="font-weight:bold"
                           title="The reported or prespecified name of the adverse event.">
                        <a href="https://library.cdisc.org/api/mdr/cdashig/2-1/domains/AE/fields/AETERM">AETERM</a>
                     </span>
                     <br/>Core: HR<br/>Type: Char</td>
                  <td>
                     <span style="font-weight:bold" title="Verbatim name of the event.">
                        <a href="https://library.cdisc.org/api/mdr/sdtmig/3-2/datasets/AE/variables/AETERM">AETERM</a>
                     </span>
                     <br/>Core: Req<br/>Type: Char</td>
                  <td/>
               </tr>
               <tr>
                  <th>Adverse Event Occurrence</th>
                  <td colspan="2" style="background-color:LightGray">FHIR only captures AdverseEvents that have actually occurred.  A flag about whether a particular potential adverse reaction has been detected or not could be captured using Questionnaire Response</td>
                  <td>
                     <span style="font-weight:bold"
                           title="An indication whether a prespecified adverse event or a group of adverse events occurred when information about the occurrence of a specific event is solicited.">
                        <a href="https://library.cdisc.org/api/mdr/cdashig/2-1/domains/AE/fields/AEOCCUR">AEOCCUR</a>
                     </span>
                     <br/>Core: O<br/>Type: Char</td>
                  <td>
                     <span style="font-weight:bold"/>
                  </td>
                  <td/>
               </tr>
               <tr>
                  <th>Prespecified Adverse Event</th>
                  <td colspan="2" style="background-color:LightGray">If captured within an EHR, this would be an extension on the existing extension that references the ResearchStudy.  (An AdverseEvent might be pre-specified for one study and not for another.)</td>
                  <td>
                     <span style="font-weight:bold"
                           title="An indication that a specific event, or group of events, are prespecified on a CRF.">
                        <a href="https://library.cdisc.org/api/mdr/cdashig/2-1/domains/AE/fields/AEPRESP">AEPRESP</a>
                     </span>
                     <br/>Core: O<br/>Type: Char</td>
                  <td>
                     <span style="font-weight:bold"
                           title="A value of &#34;Y&#34; indicates that this adverse event was pre-specified on the CRF. Values are null for spontaneously reported events (i.e., those collected as free-text verbatim terms)">
                        <a href="https://library.cdisc.org/api/mdr/sdtmig/3-2/datasets/AE/variables/AEPRESP">AEPRESP</a>
                     </span>
                     <br/>Core: Perm<br/>Type: Char</td>
                  <td/>
               </tr>
               <tr>
                  <th>Adverse Event Start Date</th>
                  <td>
                     <span title="The date (and perhaps time) when the adverse event occurred.">
                        <a style="font-weight:bold"
                           href="{{site.data.fhir.path}}adverseevent-definitions.html#AdverseEvent.date">AdverseEvent.date</a>
                     </span>
                     <br/>0..1 <a href="{{site.data.fhir.path}}datatypes.html#dateTime">dateTime</a>
                  </td>
                  <td>
                     <p>AdverseEvent.date(date portion)</p>
                  </td>
                  <td>
                     <span style="font-weight:bold"
                           title="The start date of the adverse event, represented in an unambiguous date format (e.g., DD-MON-YYYY).">
                        <a href="https://library.cdisc.org/api/mdr/cdashig/2-1/domains/AE/fields/AESTDAT">AESTDAT</a>
                     </span>
                     <br/>Core: HR<br/>Type: Char</td>
                  <td>
                     <span style="font-weight:bold">
                        <a href="https://library.cdisc.org/api/mdr/sdtmig/3-2/datasets/AE/variables/AESTDTC">AESTDTC</a>
                     </span>
                     <br/>Core: Exp<br/>Type: Char<br/>values: ISO 8601</td>
                  <td/>
               </tr>
               <tr>
                  <th>Start Time of Adverse Event</th>
                  <td>
                     <span title="The date (and perhaps time) when the adverse event occurred.">
                        <a style="font-weight:bold"
                           href="{{site.data.fhir.path}}adverseevent-definitions.html#AdverseEvent.date">AdverseEvent.date</a>
                     </span>
                     <br/>0..1 <a href="{{site.data.fhir.path}}datatypes.html#dateTime">dateTime</a>
                  </td>
                  <td>
                     <p>AdverseEvent.date(time portion)</p>
                  </td>
                  <td>
                     <span style="font-weight:bold"
                           title="The start time of the adverse event, represented in an unambiguous time format (e.g., hh:mm:ss)">
                        <a href="https://library.cdisc.org/api/mdr/cdashig/2-1/domains/AE/fields/AESTTIM">AESTTIM</a>
                     </span>
                     <br/>Core: R/C<br/>Type: Char</td>
                  <td>
                     <span style="font-weight:bold">
                        <a href="https://library.cdisc.org/api/mdr/sdtmig/3-2/datasets/AE/variables/AESTDTC">AESTDTC</a>
                     </span>
                     <br/>Core: Exp<br/>Type: Char<br/>values: ISO 8601</td>
                  <td/>
               </tr>
               <tr>
                  <th>AE Location of Event</th>
                  <td>
                     <span title="The anatomical location where this condition manifests itself.">
                        <a style="font-weight:bold"
                           href="{{site.data.fhir.path}}condition-definitions.html#Condition.bodySite">Condition.bodySite</a>
                     </span>
                     <br/>0..* <a href="{{site.data.fhir.path}}datatypes.html#CodeableConcept">CodeableConcept</a>
                     <br/>Binding: <a href="http://hl7.org/fhir/ValueSet/body-site">BodySite</a> 
                     <a href="{{site.data.fhir.path}}terminologies.html#example">example</a>
                  </td>
                  <td>
                     <p>AdverseEvent.resultingCondition.resolve().bodySite</p>
                  </td>
                  <td>
                     <span style="font-weight:bold"
                           title="A description of the anatomical location relevant for the adverse event.">
                        <a href="https://library.cdisc.org/api/mdr/cdashig/2-1/domains/AE/fields/AELOC">AELOC</a>
                     </span>
                     <br/>Core: O<br/>Type: Char</td>
                  <td>
                     <span style="font-weight:bold"
                           title="Describes anatomical location relevant for the event (e.g., ARM for skin rash).">
                        <a href="https://library.cdisc.org/api/mdr/sdtmig/3-2/datasets/AE/variables/AELOC">AELOC</a>
                     </span>
                     <br/>Core: Perm<br/>Type: Char</td>
                  <td>Requires knowledge or review of data to ensure location, laterality and directionality are included in the code and can be parsed.</td>
               </tr>
               <tr>
                  <th>Adverse Event Laterality</th>
                  <td>
                     <span title="The anatomical location where this condition manifests itself.">
                        <a style="font-weight:bold"
                           href="{{site.data.fhir.path}}condition-definitions.html#Condition.bodySite">Condition.bodySite</a>
                     </span>
                     <br/>0..* <a href="{{site.data.fhir.path}}datatypes.html#CodeableConcept">CodeableConcept</a>
                     <br/>Binding: <a href="http://hl7.org/fhir/ValueSet/body-site">BodySite</a> 
                     <a href="{{site.data.fhir.path}}terminologies.html#example">example</a>
                  </td>
                  <td>
                     <p>AdverseEvent.resultingCondition.resolve().bodySite</p>
                  </td>
                  <td>
                     <span style="font-weight:bold"
                           title="Qualifier for anatomical location further detailing the side of the body relevant for the event.">
                        <a href="https://library.cdisc.org/api/mdr/cdashig/2-1/domains/AE/fields/AELAT">AELAT</a>
                     </span>
                     <br/>Core: O<br/>Type: Char</td>
                  <td>
                     <span style="font-weight:bold">AELAT*</span>
                  </td>
                  <td>Requires knowledge or review of data to ensure location, laterality and directionality are included in the code and can be parsed.</td>
               </tr>
               <tr>
                  <th>Adverse Event Directionality</th>
                  <td>
                     <span title="The anatomical location where this condition manifests itself.">
                        <a style="font-weight:bold"
                           href="{{site.data.fhir.path}}condition-definitions.html#Condition.bodySite">Condition.bodySite</a>
                     </span>
                     <br/>0..* <a href="{{site.data.fhir.path}}datatypes.html#CodeableConcept">CodeableConcept</a>
                     <br/>Binding: <a href="http://hl7.org/fhir/ValueSet/body-site">BodySite</a> 
                     <a href="{{site.data.fhir.path}}terminologies.html#example">example</a>
                  </td>
                  <td>
                     <p>AdverseEvent.resultingCondition.resolve().bodySite</p>
                  </td>
                  <td>
                     <span style="font-weight:bold"
                           title="Qualifier further detailing the position of the anatomical location relative to the center of the body, organ, or specimen.">
                        <a href="https://library.cdisc.org/api/mdr/cdashig/2-1/domains/AE/fields/AEDIR">AEDIR</a>
                     </span>
                     <br/>Core: O<br/>Type: Char</td>
                  <td>
                     <span style="font-weight:bold">AEDIR*</span>
                  </td>
                  <td>Requires knowledge or review of data to ensure location, laterality and directionality are included in the code and can be parsed.</td>
               </tr>
               <tr>
                  <th>AE Location Portion or Totality</th>
                  <td>
                     <span title="The anatomical location where this condition manifests itself.">
                        <a style="font-weight:bold"
                           href="{{site.data.fhir.path}}condition-definitions.html#Condition.bodySite">Condition.bodySite</a>
                     </span>
                     <br/>0..* <a href="{{site.data.fhir.path}}datatypes.html#CodeableConcept">CodeableConcept</a>
                     <br/>Binding: <a href="http://hl7.org/fhir/ValueSet/body-site">BodySite</a> 
                     <a href="{{site.data.fhir.path}}terminologies.html#example">example</a>
                  </td>
                  <td>
                     <p>AdverseEvent.resultingCondition.resolve().bodySite</p>
                  </td>
                  <td>
                     <span style="font-weight:bold"
                           title="Qualifier for anatomical location further detailing the distribution (i.e., arrangement of, apportioning of).">
                        <a href="https://library.cdisc.org/api/mdr/cdashig/2-1/domains/AE/fields/AEPORTOT">AEPORTOT</a>
                     </span>
                     <br/>Core: O<br/>Type: Char</td>
                  <td>
                     <span style="font-weight:bold">AEPORTOT*</span>
                  </td>
                  <td>Review of data to ensure location, laterality and directionality are included in the code and can be parsed.</td>
               </tr>
               <tr>
                  <th>Ongoing Adverse Event</th>
                  <td>
                     <span title="Describes the type of outcome from the adverse event.">
                        <a style="font-weight:bold"
                           href="{{site.data.fhir.path}}adverseevent-definitions.html#AdverseEvent.outcome">AdverseEvent.outcome</a>
                     </span>
                     <br/>0..1 <a href="{{site.data.fhir.path}}datatypes.html#CodeableConcept">CodeableConcept</a>
                     <br/>Binding: <a href="http://hl7.org/fhir/ValueSet/adverse-event-outcome">AdverseEventOutcome</a> 
                     <a href="{{site.data.fhir.path}}terminologies.html#required">required</a>
                  </td>
                  <td>
                     <p>AdverseEvent.outcome=ongoing</p>
                  </td>
                  <td>
                     <span style="font-weight:bold"
                           title="Indication that an adverse event is ongoing when no End Date is provided.">
                        <a href="https://library.cdisc.org/api/mdr/cdashig/2-1/domains/AE/fields/AEONGO">AEONGO</a>
                     </span>
                     <br/>Core: O<br/>Type: Char</td>
                  <td>
                     <span style="font-weight:bold"
                           title="Identifies the end of the event as being before or after the reference time point defined by variable AEENTPT.">
                        <a href="https://library.cdisc.org/api/mdr/sdtmig/3-2/datasets/AE/variables/AEENRTPT">AEENRTPT</a>
                     </span>
                     <br/>Core: Perm<br/>Type: Char<span style="font-weight:bold"
                           title="Describes the end of the event relative to the sponsor-defined reference period. The sponsor-defined reference period is a continuous period of time defined by a discrete starting point (RFSTDTC) and a discrete ending point (RFENDTC) of the trial.">
                        <a href="https://library.cdisc.org/api/mdr/sdtmig/3-2/datasets/AE/variables/AEENRF">AEENRF</a>
                     </span>
                     <br/>Core: Perm<br/>Type: Char</td>
                  <td>Note that the assertion of 'ongoing' is made at the time the adverse event is recorded, which may or may not be what's needed for submission purposes.</td>
               </tr>
               <tr>
                  <th>Adverse Event End Date</th>
                  <td>
                     <span title="May be used to represent additional information that is not part of the basic definition of the resource. To make the use of extensions safe and manageable, there is a strict set of governance  applied to the definition and use of extensions. Though any implementer can define an extension, there is a set of requirements that SHALL be met as part of the definition of the extension.">
                        <a style="font-weight:bold"
                           href="{{site.data.fhir.path}}adverseevent-definitions.html#AdverseEvent.extension">AdverseEvent.extension</a>
                     </span>
                     <br/>0..* <a href="{{site.data.fhir.path}}datatypes.html#Extension">Extension</a>
                  </td>
                  <td>
                     <p>AdverseEvent.extension(AdverseEvent.occurrence).valuePeriod.end</p>
                  </td>
                  <td>
                     <span style="font-weight:bold"
                           title="The date when the adverse event resolved/ended, represented in an unambiguous date format (e.g., DD-MON-YYYY).">
                        <a href="https://library.cdisc.org/api/mdr/cdashig/2-1/domains/AE/fields/AEENDAT">AEENDAT</a>
                     </span>
                     <br/>Core: R/C<br/>Type: Char</td>
                  <td>
                     <span style="font-weight:bold">
                        <a href="https://library.cdisc.org/api/mdr/sdtmig/3-2/datasets/AE/variables/AEENDTC">AEENDTC</a>
                     </span>
                     <br/>Core: Exp<br/>Type: Char<br/>values: ISO 8601</td>
                  <td>Need to use a standard extension to pre-adopt the type allowed in R5.  Element contains both date and time (if specified).</td>
               </tr>
               <tr>
                  <th>End Time of Adverse Event</th>
                  <td>
                     <span title="May be used to represent additional information that is not part of the basic definition of the resource. To make the use of extensions safe and manageable, there is a strict set of governance  applied to the definition and use of extensions. Though any implementer can define an extension, there is a set of requirements that SHALL be met as part of the definition of the extension.">
                        <a style="font-weight:bold"
                           href="{{site.data.fhir.path}}adverseevent-definitions.html#AdverseEvent.extension">AdverseEvent.extension</a>
                     </span>
                     <br/>0..* <a href="{{site.data.fhir.path}}datatypes.html#Extension">Extension</a>
                  </td>
                  <td>
                     <p>AdverseEvent.extension(AdverseEvent.occurrence).valuePeriod.end</p>
                  </td>
                  <td>
                     <span style="font-weight:bold"
                           title="The time when the adverse event ended/resolved, represented in an unambiguous time format (e.g., hh:mm:ss).">
                        <a href="https://library.cdisc.org/api/mdr/cdashig/2-1/domains/AE/fields/AEENTIM">AEENTIM</a>
                     </span>
                     <br/>Core: R/C<br/>Type: Char</td>
                  <td>
                     <span style="font-weight:bold">
                        <a href="https://library.cdisc.org/api/mdr/sdtmig/3-2/datasets/AE/variables/AEENDTC">AEENDTC</a>
                     </span>
                     <br/>Core: Exp<br/>Type: Char<br/>values: ISO 8601</td>
                  <td>Need to use a standard extension to pre-adopt the type allowed in R5.  Element contains both date and time (if specified).</td>
               </tr>
               <tr>
                  <th>AE Severity/Intensity</th>
                  <td>
                     <span title="Describes the severity of the adverse event, in relation to the subject. Contrast to AdverseEvent.seriousness - a severe rash might not be serious, but a mild heart problem is.">
                        <a style="font-weight:bold"
                           href="{{site.data.fhir.path}}adverseevent-definitions.html#AdverseEvent.severity">AdverseEvent.severity</a>
                     </span>
                     <br/>0..1 <a href="{{site.data.fhir.path}}datatypes.html#CodeableConcept">CodeableConcept</a>
                     <br/>Binding: <a href="http://hl7.org/fhir/ValueSet/adverse-event-severity">AdverseEventSeverity</a> 
                     <a href="{{site.data.fhir.path}}terminologies.html#required">required</a>
                  </td>
                  <td>
                     <p>AdverseEvent.severity</p>
                  </td>
                  <td>
                     <span style="font-weight:bold"
                           title="The severity or intensity of the event.">
                        <a href="https://library.cdisc.org/api/mdr/cdashig/2-1/domains/AE/fields/AESEV">AESEV</a>
                     </span>
                     <br/>Core: R/C<br/>Type: Char</td>
                  <td>
                     <span style="font-weight:bold"
                           title="The severity or intensity of the event. Examples: MILD, MODERATE, SEVERE.">
                        <a href="https://library.cdisc.org/api/mdr/sdtmig/3-2/datasets/AE/variables/AESEV">AESEV</a>
                     </span>
                     <br/>Core: Perm<br/>Type: Char</td>
                  <td/>
               </tr>
               <tr>
                  <th>AE Standard Toxicity Grade</th>
                  <td colspan="2" style="background-color:LightGray">Recommendation is to add extension for oncology or other studies requiring toxicity grades.</td>
                  <td>
                     <span style="font-weight:bold"
                           title="The grade of the severity of the event using a standard &#34;toxicity&#34; scale (e.g., NCI CTCAE).">
                        <a href="https://library.cdisc.org/api/mdr/cdashig/2-1/domains/AE/fields/AETOXGR">AETOXGR</a>
                     </span>
                     <br/>Core: R/C<br/>Type: Char</td>
                  <td>
                     <span style="font-weight:bold"
                           title="Toxicity grade according to a standard toxicity scale such as Common Terminology Criteria for Adverse Events v3.0 (CTCAE). Sponsor should specify name of the scale and version used in the metadata (see Assumption 6d). If value is from a numeric scale, represent only the number (e.g., &#34;2&#34; and not &#34;Grade 2&#34;).">
                        <a href="https://library.cdisc.org/api/mdr/sdtmig/3-2/datasets/AE/variables/AETOXGR">AETOXGR</a>
                     </span>
                     <br/>Core: Perm<br/>Type: Char</td>
                  <td/>
               </tr>
               <tr>
                  <th>AE Serious Event</th>
                  <td>
                     <span title="Assessment whether this event was of real importance.">
                        <a style="font-weight:bold"
                           href="{{site.data.fhir.path}}adverseevent-definitions.html#AdverseEvent.seriousness">AdverseEvent.seriousness</a>
                     </span>
                     <br/>0..1 <a href="{{site.data.fhir.path}}datatypes.html#CodeableConcept">CodeableConcept</a>
                     <br/>Binding: <a href="http://hl7.org/fhir/ValueSet/adverse-event-seriousness">AdverseEventSeriousness</a> 
                     <a href="{{site.data.fhir.path}}terminologies.html#example">example</a>
                  </td>
                  <td>
                     <p>AdverseEvent.seriousness</p>
                  </td>
                  <td>
                     <span style="font-weight:bold"
                           title="An indication whether or not the adverse event is determined to be &#34;serious&#34; based on what is defined in the protocol.">
                        <a href="https://library.cdisc.org/api/mdr/cdashig/2-1/domains/AE/fields/AESER">AESER</a>
                     </span>
                     <br/>Core: R/C<br/>Type: Char</td>
                  <td>
                     <span style="font-weight:bold" title="Is this a serious event?">
                        <a href="https://library.cdisc.org/api/mdr/sdtmig/3-2/datasets/AE/variables/AESER">AESER</a>
                     </span>
                     <br/>Core: Exp<br/>Type: Char</td>
                  <td>Access if an adverse event should be classified as serious based on the serious criteria defined in the protocol.</td>
               </tr>
               <tr>
                  <th>Results in Death</th>
                  <td>
                     <span title="Describes the type of outcome from the adverse event.">
                        <a style="font-weight:bold"
                           href="{{site.data.fhir.path}}adverseevent-definitions.html#AdverseEvent.outcome">AdverseEvent.outcome</a>
                     </span>
                     <br/>0..1 <a href="{{site.data.fhir.path}}datatypes.html#CodeableConcept">CodeableConcept</a>
                     <br/>Binding: <a href="http://hl7.org/fhir/ValueSet/adverse-event-outcome">AdverseEventOutcome</a> 
                     <a href="{{site.data.fhir.path}}terminologies.html#required">required</a>
                  </td>
                  <td>
                     <p>AdverseEvent.outcome='fatal'</p>
                  </td>
                  <td>
                     <span style="font-weight:bold"
                           title="An indication the serious adverse event resulted in death.">
                        <a href="https://library.cdisc.org/api/mdr/cdashig/2-1/domains/AE/fields/AESDTH">AESDTH</a>
                     </span>
                     <br/>Core: R/C<br/>Type: Char</td>
                  <td>
                     <span style="font-weight:bold" title="Did the serious event result in death?">
                        <a href="https://library.cdisc.org/api/mdr/sdtmig/3-2/datasets/AE/variables/AESDTH">AESDTH</a>
                     </span>
                     <br/>Core: Perm<br/>Type: Char</td>
                  <td/>
               </tr>
               <tr>
                  <th>Death Date</th>
                  <td>
                     <span title="Indicates if the individual is deceased or not.">
                        <a style="font-weight:bold"
                           href="{{site.data.fhir.path}}patient-definitions.html#Patient.deceasedDateTime">Patient.deceasedDateTime</a>
                     </span>
                     <br/>0..1 <a href="{{site.data.fhir.path}}datatypes.html#dateTime">dateTime</a>
                  </td>
                  <td>
                     <p>Patient.deceasedDateTime</p>
                  </td>
                  <td>
                     <span style="font-weight:bold"
                           title="Date of death for any subject who died.">
                        <a href="https://library.cdisc.org/api/mdr/cdashig/2-1/domains/AE/fields/DTHDAT">DTHDAT</a>
                     </span>
                     <br/>Core: O<br/>Type: Char</td>
                  <td>
                     <span style="font-weight:bold"
                           title="Date/time of death for any subject who died, in ISO 8601 format. Should represent the date/time that is captured in the clinical-trial database.">
                        <a href="https://library.cdisc.org/api/mdr/sdtmig/3-2/datasets/DM/variables/DTHDTC">DM.DTHDTC</a>
                     </span>
                     <br/>Core: Exp<br/>Type: Char<br/>values: ISO 8601</td>
                  <td/>
               </tr>
               <tr>
                  <th>Is Life Threatening</th>
                  <td>
                     <span title="Assessment whether this event was of real importance.">
                        <a style="font-weight:bold"
                           href="{{site.data.fhir.path}}adverseevent-definitions.html#AdverseEvent.seriousness">AdverseEvent.seriousness</a>
                     </span>
                     <br/>0..1 <a href="{{site.data.fhir.path}}datatypes.html#CodeableConcept">CodeableConcept</a>
                     <br/>Binding: <a href="http://hl7.org/fhir/ValueSet/adverse-event-seriousness">AdverseEventSeriousness</a> 
                     <a href="{{site.data.fhir.path}}terminologies.html#example">example</a>
                  </td>
                  <td>
                     <p>AdverseEvent.seriousness</p>
                  </td>
                  <td>
                     <span style="font-weight:bold"
                           title="An indication the serious adverse event was life threatening.">
                        <a href="https://library.cdisc.org/api/mdr/cdashig/2-1/domains/AE/fields/AESLIFE">AESLIFE</a>
                     </span>
                     <br/>Core: R/C<br/>Type: Char</td>
                  <td>
                     <span style="font-weight:bold"
                           title="Was the serious event life threatening?">
                        <a href="https://library.cdisc.org/api/mdr/sdtmig/3-2/datasets/AE/variables/AESLIFE">AESLIFE</a>
                     </span>
                     <br/>Core: Perm<br/>Type: Char</td>
                  <td>These would typically be flagged by seriousness or outcome codes.  Will need to propose change request to support capturing more than one</td>
               </tr>
               <tr>
                  <th>Requires or Prolongs Hospitalization</th>
                  <td colspan="2" style="background-color:LightGray">Note: there is Encounter.hospitalization.[x], but its relevance to AESHOSP may not be explicit and would require additional analysis.</td>
                  <td>
                     <span style="font-weight:bold"
                           title="An indication the serious adverse event resulted in an initial or prolonged hospitalization.">
                        <a href="https://library.cdisc.org/api/mdr/cdashig/2-1/domains/AE/fields/AESHOSP">AESHOSP</a>
                     </span>
                     <br/>Core: R/C<br/>Type: Char</td>
                  <td>
                     <span style="font-weight:bold"
                           title="Did the serious event require or prolong hospitalization?">
                        <a href="https://library.cdisc.org/api/mdr/sdtmig/3-2/datasets/AE/variables/AESHOSP">AESHOSP</a>
                     </span>
                     <br/>Core: Perm<br/>Type: Char</td>
                  <td/>
               </tr>
               <tr>
                  <th>Persist or Signif Disability/Incapacity</th>
                  <td>
                     <span title="Describes the type of outcome from the adverse event.">
                        <a style="font-weight:bold"
                           href="{{site.data.fhir.path}}adverseevent-definitions.html#AdverseEvent.outcome">AdverseEvent.outcome</a>
                     </span>
                     <br/>0..1 <a href="{{site.data.fhir.path}}datatypes.html#CodeableConcept">CodeableConcept</a>
                     <br/>Binding: <a href="http://hl7.org/fhir/ValueSet/adverse-event-outcome">AdverseEventOutcome</a> 
                     <a href="{{site.data.fhir.path}}terminologies.html#required">required</a>
                  </td>
                  <td>
                     <p>AdverseEvent.outcome</p>
                  </td>
                  <td>
                     <span style="font-weight:bold"
                           title="An indication the serious adverse event was associated with a persistent or significant disability or incapacity.">
                        <a href="https://library.cdisc.org/api/mdr/cdashig/2-1/domains/AE/fields/AESDISAB">AESDISAB</a>
                     </span>
                     <br/>Core: R/C<br/>Type: Char</td>
                  <td>
                     <span style="font-weight:bold"
                           title="Did the serious event result in persistent or significant disability/incapacity?">
                        <a href="https://library.cdisc.org/api/mdr/sdtmig/3-2/datasets/AE/variables/AESDISAB">AESDISAB</a>
                     </span>
                     <br/>Core: Perm<br/>Type: Char</td>
                  <td>These would typically be flagged by seriousness or outcome codes.  Will need to propose change request to support capturing more than one</td>
               </tr>
               <tr>
                  <th>Congenital Anomaly or Birth Defect</th>
                  <td>
                     <span title="Describes the type of outcome from the adverse event.">
                        <a style="font-weight:bold"
                           href="{{site.data.fhir.path}}adverseevent-definitions.html#AdverseEvent.outcome">AdverseEvent.outcome</a>
                     </span>
                     <br/>0..1 <a href="{{site.data.fhir.path}}datatypes.html#CodeableConcept">CodeableConcept</a>
                     <br/>Binding: <a href="http://hl7.org/fhir/ValueSet/adverse-event-outcome">AdverseEventOutcome</a> 
                     <a href="{{site.data.fhir.path}}terminologies.html#required">required</a>
                  </td>
                  <td>
                     <p>AdverseEvent.outcome</p>
                  </td>
                  <td>
                     <span style="font-weight:bold"
                           title="An indication the serious adverse event was associated with a congenital anomaly or birth defect.">
                        <a href="https://library.cdisc.org/api/mdr/cdashig/2-1/domains/AE/fields/AESCONG">AESCONG</a>
                     </span>
                     <br/>Core: R/C<br/>Type: Char</td>
                  <td>
                     <span style="font-weight:bold"
                           title="Was the serious event associated with congenital anomaly or birth defect?">
                        <a href="https://library.cdisc.org/api/mdr/sdtmig/3-2/datasets/AE/variables/AESCONG">AESCONG</a>
                     </span>
                     <br/>Core: Perm<br/>Type: Char</td>
                  <td>These would typically be flagged by seriousness or outcome codes.  Will need to propose change request to support capturing more than one</td>
               </tr>
               <tr>
                  <th>Needs Intervention to Prevent Impairment</th>
                  <td>
                     <span title="Describes the type of outcome from the adverse event.">
                        <a style="font-weight:bold"
                           href="{{site.data.fhir.path}}adverseevent-definitions.html#AdverseEvent.outcome">AdverseEvent.outcome</a>
                     </span>
                     <br/>0..1 <a href="{{site.data.fhir.path}}datatypes.html#CodeableConcept">CodeableConcept</a>
                     <br/>Binding: <a href="http://hl7.org/fhir/ValueSet/adverse-event-outcome">AdverseEventOutcome</a> 
                     <a href="{{site.data.fhir.path}}terminologies.html#required">required</a>
                  </td>
                  <td>
                     <p>AdverseEvent.outcome</p>
                  </td>
                  <td>
                     <span style="font-weight:bold"
                           title="An indication an adverse event required medical or surgical intervention to preclude permanent impairment of a body function, or prevent permanent damage to a body structure, due to the use of a medical product.">
                        <a href="https://library.cdisc.org/api/mdr/cdashig/2-1/domains/AE/fields/AESINTV">AESINTV</a>
                     </span>
                     <br/>Core: O<br/>Type: Char</td>
                  <td>
                     <span style="font-weight:bold">SUPPAE.QVAL</span>
                  </td>
                  <td>These would typically be flagged by seriousness or outcome codes.  Will need to propose change request to support capturing more than one</td>
               </tr>
               <tr>
                  <th>Other Medically Important Serious Event</th>
                  <td>
                     <span title="Describes the type of outcome from the adverse event.">
                        <a style="font-weight:bold"
                           href="{{site.data.fhir.path}}adverseevent-definitions.html#AdverseEvent.outcome">AdverseEvent.outcome</a>
                     </span>
                     <br/>0..1 <a href="{{site.data.fhir.path}}datatypes.html#CodeableConcept">CodeableConcept</a>
                     <br/>Binding: <a href="http://hl7.org/fhir/ValueSet/adverse-event-outcome">AdverseEventOutcome</a> 
                     <a href="{{site.data.fhir.path}}terminologies.html#required">required</a>
                  </td>
                  <td>
                     <p>AdverseEvent.outcome</p>
                  </td>
                  <td>
                     <span style="font-weight:bold"
                           title="An indication additional categories for seriousness apply.">
                        <a href="https://library.cdisc.org/api/mdr/cdashig/2-1/domains/AE/fields/AESMIE">AESMIE</a>
                     </span>
                     <br/>Core: R/C<br/>Type: Char</td>
                  <td>
                     <span style="font-weight:bold"
                           title="Do additional categories for seriousness apply?">
                        <a href="https://library.cdisc.org/api/mdr/sdtmig/3-2/datasets/AE/variables/AESMIE">AESMIE</a>
                     </span>
                     <br/>Core: Perm<br/>Type: Char</td>
                  <td>Additional outcomes or seriousness codes would be specified</td>
               </tr>
               <tr>
                  <th>Involves Cancer</th>
                  <td>
                     <span title="Describes the type of outcome from the adverse event.">
                        <a style="font-weight:bold"
                           href="{{site.data.fhir.path}}adverseevent-definitions.html#AdverseEvent.outcome">AdverseEvent.outcome</a>
                     </span>
                     <br/>0..1 <a href="{{site.data.fhir.path}}datatypes.html#CodeableConcept">CodeableConcept</a>
                     <br/>Binding: <a href="http://hl7.org/fhir/ValueSet/adverse-event-outcome">AdverseEventOutcome</a> 
                     <a href="{{site.data.fhir.path}}terminologies.html#required">required</a>
                  </td>
                  <td>
                     <p>AdverseEvent.outcome</p>
                  </td>
                  <td>
                     <span style="font-weight:bold"
                           title="An indication the serious event was associated with the development of cancer.">
                        <a href="https://library.cdisc.org/api/mdr/cdashig/2-1/domains/AE/fields/AESCAN">AESCAN</a>
                     </span>
                     <br/>Core: O<br/>Type: Char</td>
                  <td>
                     <span style="font-weight:bold"
                           title="Was the serious event associated with the development of cancer?">
                        <a href="https://library.cdisc.org/api/mdr/sdtmig/3-2/datasets/AE/variables/AESCAN">AESCAN</a>
                     </span>
                     <br/>Core: Perm<br/>Type: Char</td>
                  <td>Additional outcomes or seriousness codes would be specified</td>
               </tr>
               <tr>
                  <th>Occurred with Overdose</th>
                  <td>
                     <span title="AdverseEvent.suspectEntity.causalityProductRelatedness.">
                        <a style="font-weight:bold"
                           href="{{site.data.fhir.path}}adverseevent-definitions.html#AdverseEvent.suspectEntity.causality.productRelatedness">AdverseEvent.suspectEntity.causality.productRelatedness</a>
                     </span>
                     <br/>0..1 <a href="{{site.data.fhir.path}}datatypes.html#string">string</a>
                  </td>
                  <td>
                     <p>AdverseEvent.suspectEntity.causality.productRelatedness</p>
                  </td>
                  <td>
                     <span style="font-weight:bold"
                           title="An indication the serious event occurred with an overdose.">
                        <a href="https://library.cdisc.org/api/mdr/cdashig/2-1/domains/AE/fields/AESOD">AESOD</a>
                     </span>
                     <br/>Core: O<br/>Type: Char</td>
                  <td>
                     <span style="font-weight:bold"
                           title="Did the serious event occur with an overdose?">
                        <a href="https://library.cdisc.org/api/mdr/sdtmig/3-2/datasets/AE/variables/AESOD">AESOD</a>
                     </span>
                     <br/>Core: Perm<br/>Type: Char</td>
                  <td>Product Relatedness implies that the product is involved in the AE, but it doesn't indicate overdose.   After looking through other fields, it does not look like there is a field that would cover this situation.   In studies, OD  would be a reason why the AE was marked as an SAE.</td>
               </tr>
               <tr>
                  <th>AE Causality</th>
                  <td>
                     <span title="AdverseEvent.suspectEntity.causalityProductRelatedness.">
                        <a style="font-weight:bold"
                           href="{{site.data.fhir.path}}adverseevent-definitions.html#AdverseEvent.suspectEntity.causality.productRelatedness">AdverseEvent.suspectEntity.causality.productRelatedness</a>
                     </span>
                     <br/>0..1 <a href="{{site.data.fhir.path}}datatypes.html#string">string</a>
                  </td>
                  <td>
                     <p>AdverseEvent.suspectEntity.causality.productRelatedness|AdverseEvent.suspectEntity.causality.assessment with binding to  AdverseEventCausalityAssessment value set</p>
                  </td>
                  <td>
                     <span style="font-weight:bold"
                           title="An indication the study treatment had a causal effect on the adverse event, as determined by the clinician/investigator.">
                        <a href="https://library.cdisc.org/api/mdr/cdashig/2-1/domains/AE/fields/AEREL">AEREL</a>
                     </span>
                     <br/>Core: HR<br/>Type: Char</td>
                  <td>
                     <span style="font-weight:bold"
                           title="Records the investigator's opinion as to the causality of the event to the treatment. ICH E2A and E2B examples include NOT RELATED, UNLIKELY RELATED, POSSIBLY RELATED, RELATED. Controlled Terminology may be defined in the future. Check with regulatory authority for population of this variable.">
                        <a href="https://library.cdisc.org/api/mdr/sdtmig/3-2/datasets/AE/variables/AEREL">AEREL</a>
                     </span>
                     <br/>Core: Exp<br/>Type: Char</td>
                  <td>Reasonable to map to both.  Information could be useful in either of these fields.</td>
               </tr>
               <tr>
                  <th>Action Taken with Study Treatment</th>
                  <td>
                     <span title="May be used to represent additional information that is not part of the basic definition of the resource. To make the use of extensions safe and manageable, there is a strict set of governance  applied to the definition and use of extensions. Though any implementer can define an extension, there is a set of requirements that SHALL be met as part of the definition of the extension.">
                        <a style="font-weight:bold"
                           href="{{site.data.fhir.path}}adverseevent-definitions.html#AdverseEvent.extension">AdverseEvent.extension</a>
                     </span>
                     <br/>0..* <a href="{{site.data.fhir.path}}datatypes.html#Extension">Extension</a>
                  </td>
                  <td>
                     <p>AdverseEvent.extension(AdverseEvent.mitigatingAction).extension(item).valueCodeableConcept</p>
                  </td>
                  <td>
                     <span style="font-weight:bold"
                           title="A description of the action taken with study treatment as a result of the event.">
                        <a href="https://library.cdisc.org/api/mdr/cdashig/2-1/domains/AE/fields/AEACN">AEACN</a>
                     </span>
                     <br/>Core: R/C<br/>Type: Char</td>
                  <td>
                     <span style="font-weight:bold"
                           title="Describes changes to the study treatment as a result of the event. AEACN is specifically for the relationship to study treatment. AEACNOTH is for actions unrelated to dose adjustments of study treatment. Examples of AEACN values include ICH E2B values: DRUG WITHDRAWN, DOSE REDUCED, DOSE INCREASED, DOSE NOT CHANGED, UNKNOWN or NOT APPLICABLE.">
                        <a href="https://library.cdisc.org/api/mdr/sdtmig/3-2/datasets/AE/variables/AEACN">AEACN</a>
                     </span>
                     <br/>Core: Exp<br/>Type: Char</td>
                  <td>Pre-adopting R5 capability via a standard extension.  Note that the extension captures all actions taken, so filtration would be needed to select only those related to study treatment</td>
               </tr>
               <tr>
                  <th>Actions Taken with Device</th>
                  <td>
                     <span title="May be used to represent additional information that is not part of the basic definition of the resource. To make the use of extensions safe and manageable, there is a strict set of governance  applied to the definition and use of extensions. Though any implementer can define an extension, there is a set of requirements that SHALL be met as part of the definition of the extension.">
                        <a style="font-weight:bold"
                           href="{{site.data.fhir.path}}adverseevent-definitions.html#AdverseEvent.extension">AdverseEvent.extension</a>
                     </span>
                     <br/>0..* <a href="{{site.data.fhir.path}}datatypes.html#Extension">Extension</a>
                  </td>
                  <td>
                     <p>AdverseEvent.extension(AdverseEvent.mitigatingAction).extension(item).valueCodeableConcept</p>
                  </td>
                  <td>
                     <span style="font-weight:bold"
                           title="A description of the action taken, with respect to a device used in a study (which may or may not be the device under study), as a result of the event.">
                        <a href="https://library.cdisc.org/api/mdr/cdashig/2-1/domains/AE/fields/AEACNDEV">AEACNDEV</a>
                     </span>
                     <br/>Core: O<br/>Type: Char</td>
                  <td>
                     <span style="font-weight:bold">SUPPAE.QVAL</span>
                  </td>
                  <td>Pre-adopting R5 capability via a standard extension.  Note that the extension captures all actions taken, so filtration would be needed to select only those related to devices</td>
               </tr>
               <tr>
                  <th>Other Action Taken</th>
                  <td>
                     <span title="May be used to represent additional information that is not part of the basic definition of the resource. To make the use of extensions safe and manageable, there is a strict set of governance  applied to the definition and use of extensions. Though any implementer can define an extension, there is a set of requirements that SHALL be met as part of the definition of the extension.">
                        <a style="font-weight:bold"
                           href="{{site.data.fhir.path}}adverseevent-definitions.html#AdverseEvent.extension">AdverseEvent.extension</a>
                     </span>
                     <br/>0..* <a href="{{site.data.fhir.path}}datatypes.html#Extension">Extension</a>
                  </td>
                  <td>
                     <p>AdverseEvent.extension(AdverseEvent.mitigatingAction).extension(item).valueCodeableConcept</p>
                  </td>
                  <td>
                     <span style="font-weight:bold"
                           title="A description of other action taken as a result of the event that is unrelated to dose adjustments of the study treatment.">
                        <a href="https://library.cdisc.org/api/mdr/cdashig/2-1/domains/AE/fields/AEACNOTH">AEACNOTH</a>
                     </span>
                     <br/>Core: O<br/>Type: Char</td>
                  <td>
                     <span style="font-weight:bold"
                           title="Describes other actions taken as a result of the event that are unrelated to dose adjustments of study treatment. Usually reported as free text. Example: &#34;TREATMENT UNBLINDED. PRIMARY CARE PHYSICIAN NOTIFIED.&#34;">
                        <a href="https://library.cdisc.org/api/mdr/sdtmig/3-2/datasets/AE/variables/AEACNOTH">AEACNOTH</a>
                     </span>
                     <br/>Core: Perm<br/>Type: Char</td>
                  <td>Pre-adopting R5 capability via a standard extension.  Note that the extension captures all actions taken, so filtration would be needed to exclude actions related to study treatment or device</td>
               </tr>
               <tr>
                  <th>Outcome of Adverse Event</th>
                  <td>
                     <span title="Describes the type of outcome from the adverse event.">
                        <a style="font-weight:bold"
                           href="{{site.data.fhir.path}}adverseevent-definitions.html#AdverseEvent.outcome">AdverseEvent.outcome</a>
                     </span>
                     <br/>0..1 <a href="{{site.data.fhir.path}}datatypes.html#CodeableConcept">CodeableConcept</a>
                     <br/>Binding: <a href="http://hl7.org/fhir/ValueSet/adverse-event-outcome">AdverseEventOutcome</a> 
                     <a href="{{site.data.fhir.path}}terminologies.html#required">required</a>
                  </td>
                  <td>
                     <p>AdverseEvent.outcome</p>
                  </td>
                  <td>
                     <span style="font-weight:bold"
                           title="A description of the outcome of an event.">
                        <a href="https://library.cdisc.org/api/mdr/cdashig/2-1/domains/AE/fields/AEOUT">AEOUT</a>
                     </span>
                     <br/>Core: R/C<br/>Type: Char</td>
                  <td>
                     <span style="font-weight:bold"
                           title="Description of the outcome of an event.">
                        <a href="https://library.cdisc.org/api/mdr/sdtmig/3-2/datasets/AE/variables/AEOUT">AEOUT</a>
                     </span>
                     <br/>Core: Perm<br/>Type: Char</td>
                  <td>The coded equivalents matching up the CDISC controlled terminology. Meaning, in the EHR we may not have value-based coordination from FHIR-to-CDISC</td>
               </tr>
               <tr>
                  <th>AE Caused Study Discontinuation</th>
                  <td colspan="2" style="background-color:LightGray">An extension would be added that would be study specific as the relationship might vary study to study.</td>
                  <td>
                     <span style="font-weight:bold"
                           title="An indication whether the event caused the subject to discontinue from the study.">
                        <a href="https://library.cdisc.org/api/mdr/cdashig/2-1/domains/AE/fields/AEDIS">AEDIS</a>
                     </span>
                     <br/>Core: O<br/>Type: Char</td>
                  <td>
                     <span style="font-weight:bold">SUPPAE.QVAL</span>
                  </td>
                  <td/>
               </tr>
               <tr>
                  <th>AE Related to Non-Study Treatment</th>
                  <td colspan="2" style="background-color:LightGray">An extension would be added that would be study specific as the relationship might vary study to study.</td>
                  <td>
                     <span style="font-weight:bold"
                           title="An indication whether in the investigator's opinion the event may have been due to a treatment other than study treatment.">
                        <a href="https://library.cdisc.org/api/mdr/cdashig/2-1/domains/AE/fields/AERLNSYN">AERLNSYN</a>
                     </span>
                     <br/>Core: O<br/>Type: Char</td>
                  <td>
                     <span style="font-weight:bold"/>
                  </td>
                  <td/>
               </tr>
               <tr>
                  <th>AE Relationship to Non-Study Treatment</th>
                  <td colspan="2" style="background-color:LightGray">An extension would be added that would be study specific as the relationship might vary study to study.</td>
                  <td>
                     <span style="font-weight:bold"
                           title="Description of the investigator's opinion as to whether the adverse event may have been due to a treatment other than study treatment.">
                        <a href="https://library.cdisc.org/api/mdr/cdashig/2-1/domains/AE/fields/AERELNST">AERELNST</a>
                     </span>
                     <br/>Core: O<br/>Type: Char</td>
                  <td>
                     <span style="font-weight:bold"
                           title="Records the investigator's opinion as to whether the event may have been due to a treatment other than study drug. May be reported as free text. Example: &#34;MORE LIKELY RELATED TO ASPIRIN USE.&#34;.">
                        <a href="https://library.cdisc.org/api/mdr/sdtmig/3-2/datasets/AE/variables/AERELNST">AERELNST</a>
                     </span>
                     <br/>Core: Perm<br/>Type: Char</td>
                  <td/>
               </tr>
               <tr>
                  <th>Adverse Event of Special Interest</th>
                  <td colspan="2" style="background-color:LightGray">Add extension, probably on a study-specific link.  (Adverse events of interst to one study wouldn't necessarily be of interest to others.)</td>
                  <td>
                     <span style="font-weight:bold"
                           title="An adverse event of special interest (serious or non-serious) is one of scientific and medical concern specific to the sponsor's product or program, for which ongoing monitoring and rapid communication by the investigator to the sponsor can be appropriate. Such an event might warrant further investigation in order to characterize and understand it. Depending on the nature of the event, rapid communication by the trial sponsor to other parties (e.g., regulators) might also be warranted.">
                        <a href="https://library.cdisc.org/api/mdr/cdashig/2-1/domains/AE/fields/AESI">AESI</a>
                     </span>
                     <br/>Core: O<br/>Type: Char</td>
                  <td>
                     <span style="font-weight:bold"/>
                  </td>
                  <td/>
               </tr>
               <tr>
                  <th>Pattern of Adverse Event</th>
                  <td colspan="2" style="background-color:LightGray">An extension would be added that would be study specific as the relationship might vary study to study.</td>
                  <td>
                     <span style="font-weight:bold"
                           title="Used to indicate the pattern of the event over time.">
                        <a href="https://library.cdisc.org/api/mdr/cdashig/2-1/domains/AE/fields/AEPATT">AEPATT</a>
                     </span>
                     <br/>Core: O<br/>Type: Char</td>
                  <td>
                     <span style="font-weight:bold"
                           title="Used to indicate the pattern of the event over time. Examples: INTERMITTENT, CONTINUOUS, SINGLE EVENT.">
                        <a href="https://library.cdisc.org/api/mdr/sdtmig/3-2/datasets/AE/variables/AEPATT">AEPATT</a>
                     </span>
                     <br/>Core: Perm<br/>Type: Char</td>
                  <td/>
               </tr>
               <tr>
                  <th>Concomitant or Additional Trtmnt Given</th>
                  <td>
                     <span title="May be used to represent additional information that is not part of the basic definition of the resource. To make the use of extensions safe and manageable, there is a strict set of governance  applied to the definition and use of extensions. Though any implementer can define an extension, there is a set of requirements that SHALL be met as part of the definition of the extension.">
                        <a style="font-weight:bold"
                           href="{{site.data.fhir.path}}adverseevent-definitions.html#AdverseEvent.extension">AdverseEvent.extension</a>
                     </span>
                     <br/>0..* <a href="{{site.data.fhir.path}}datatypes.html#Extension">Extension</a>
                  </td>
                  <td>
                     <p>AdverseEvent.extension(AdverseEvent.mitigatingAction).extension(item).valueCodeableConcept</p>
                  </td>
                  <td>
                     <span style="font-weight:bold"
                           title="An indication whether a concomitant or additional treatment given because of the occurrence of the event.">
                        <a href="https://library.cdisc.org/api/mdr/cdashig/2-1/domains/AE/fields/AECONTRT">AECONTRT</a>
                     </span>
                     <br/>Core: O<br/>Type: Char</td>
                  <td>
                     <span style="font-weight:bold"
                           title="Was another treatment given because of the occurrence of the event?">
                        <a href="https://library.cdisc.org/api/mdr/sdtmig/3-2/datasets/AE/variables/AECONTRT">AECONTRT</a>
                     </span>
                     <br/>Core: Perm<br/>Type: Char</td>
                  <td>R5 pre-adoption extension.  Note that mitigatingActions aren't necessarily treatments, so codes would need to be examined to only map those that were treatments</td>
               </tr>
               <tr>
                  <th>AE Modified Reported Term</th>
                  <td colspan="2" style="background-color:LightGray">The fact one of the codings was modified would be captured as an extension</td>
                  <td>
                     <span style="font-weight:bold"
                           title="If the value for AETERM is modified to facilitate coding, then AEMODIFY will contain the modified text.">
                        <a href="https://library.cdisc.org/api/mdr/cdashig/2-1/domains/AE/fields/AEMODIFY">AEMODIFY</a>
                     </span>
                     <br/>Core: R/C<br/>Type: Char</td>
                  <td>
                     <span style="font-weight:bold"
                           title="If AETERM is modified to facilitate coding, then AEMODIFY will contain the modified text.">
                        <a href="https://library.cdisc.org/api/mdr/sdtmig/3-2/datasets/AE/variables/AEMODIFY">AEMODIFY</a>
                     </span>
                     <br/>Core: Perm<br/>Type: Char</td>
                  <td/>
               </tr>
               <tr>
                  <th>AE Dictionary-Derived Term</th>
                  <td>
                     <span title="Identification of the condition, problem or diagnosis.">
                        <a style="font-weight:bold"
                           href="{{site.data.fhir.path}}condition-definitions.html#Condition.code">Condition.code</a>
                     </span>
                     <br/>0..1 <a href="{{site.data.fhir.path}}datatypes.html#CodeableConcept">CodeableConcept</a>
                     <br/>Binding: <a href="http://hl7.org/fhir/ValueSet/condition-code">ConditionKind</a> 
                     <a href="{{site.data.fhir.path}}terminologies.html#example">example</a>
                  </td>
                  <td>
                     <p>AdverseEvent.resultingCondition.resolve().code</p>
                  </td>
                  <td>
                     <span style="font-weight:bold"
                           title="The dictionary or standardized text description of AETERM or the modified topic variable (AEMODIFY), if applicable.">
                        <a href="https://library.cdisc.org/api/mdr/cdashig/2-1/domains/AE/fields/AEDECOD">AEDECOD</a>
                     </span>
                     <br/>Core: O<br/>Type: Char</td>
                  <td>
                     <span style="font-weight:bold"
                           title="Dictionary-derived text description of AETERM or AEMODIFY. Equivalent to the Preferred Term (PT in MedDRA). The sponsor is expected to provide the dictionary name and version used to map the terms utilizing the define.xml external codelist attributes.">
                        <a href="https://library.cdisc.org/api/mdr/sdtmig/3-2/datasets/AE/variables/AEDECOD">AEDECOD</a>
                     </span>
                     <br/>Core: Req<br/>Type: Char<br/>values: MedDRA</td>
                  <td>Sponsors will populate this through the coding process and is applicable to items using MedDRA coding.</td>
               </tr>
               <tr>
                  <th>AE Lowest Level Term </th>
                  <td>
                     <span title="Identification of the condition, problem or diagnosis.">
                        <a style="font-weight:bold"
                           href="{{site.data.fhir.path}}condition-definitions.html#Condition.code">Condition.code</a>
                     </span>
                     <br/>0..1 <a href="{{site.data.fhir.path}}datatypes.html#CodeableConcept">CodeableConcept</a>
                     <br/>Binding: <a href="http://hl7.org/fhir/ValueSet/condition-code">ConditionKind</a> 
                     <a href="{{site.data.fhir.path}}terminologies.html#example">example</a>
                  </td>
                  <td>
                     <p>AdverseEvent.resultingCondition.resolve().code</p>
                  </td>
                  <td>
                     <span style="font-weight:bold"
                           title="MedDRA text description of the Lowest Level Term.">
                        <a href="https://library.cdisc.org/api/mdr/cdashig/2-1/domains/AE/fields/AELLT">AELLT</a>
                     </span>
                     <br/>Core: R/C<br/>Type: Char</td>
                  <td>
                     <span style="font-weight:bold"
                           title="Dictionary-derived text description of the Lowest Level Term.">
                        <a href="https://library.cdisc.org/api/mdr/sdtmig/3-2/datasets/AE/variables/AELLT">AELLT</a>
                     </span>
                     <br/>Core: Exp<br/>Type: Char<br/>values: MedDRA</td>
                  <td>Sponsors will populate this through the coding process and is applicable to items using MedDRA coding.</td>
               </tr>
               <tr>
                  <th>AE Lowest Level Term Code</th>
                  <td>
                     <span title="Identification of the condition, problem or diagnosis.">
                        <a style="font-weight:bold"
                           href="{{site.data.fhir.path}}condition-definitions.html#Condition.code">Condition.code</a>
                     </span>
                     <br/>0..1 <a href="{{site.data.fhir.path}}datatypes.html#CodeableConcept">CodeableConcept</a>
                     <br/>Binding: <a href="http://hl7.org/fhir/ValueSet/condition-code">ConditionKind</a> 
                     <a href="{{site.data.fhir.path}}terminologies.html#example">example</a>
                  </td>
                  <td>
                     <p>AdverseEvent.resultingCondition.resolve().code</p>
                  </td>
                  <td>
                     <span style="font-weight:bold" title="MedDRA Lowest Level Term code.">
                        <a href="https://library.cdisc.org/api/mdr/cdashig/2-1/domains/AE/fields/AELLTCD">AELLTCD</a>
                     </span>
                     <br/>Core: R/C<br/>Type: Num</td>
                  <td>
                     <span style="font-weight:bold"
                           title="Dictionary-derived code for the Lowest Level Term.">
                        <a href="https://library.cdisc.org/api/mdr/sdtmig/3-2/datasets/AE/variables/AELLTCD">AELLTCD</a>
                     </span>
                     <br/>Core: Exp<br/>Type: Num<br/>values: MedDRA</td>
                  <td>Sponsors will populate this through the coding process and is applicable to items using MedDRA coding.</td>
               </tr>
               <tr>
                  <th>AE Preferred Term Code</th>
                  <td>
                     <span title="Identification of the condition, problem or diagnosis.">
                        <a style="font-weight:bold"
                           href="{{site.data.fhir.path}}condition-definitions.html#Condition.code">Condition.code</a>
                     </span>
                     <br/>0..1 <a href="{{site.data.fhir.path}}datatypes.html#CodeableConcept">CodeableConcept</a>
                     <br/>Binding: <a href="http://hl7.org/fhir/ValueSet/condition-code">ConditionKind</a> 
                     <a href="{{site.data.fhir.path}}terminologies.html#example">example</a>
                  </td>
                  <td>
                     <p>AdverseEvent.resultingCondition.resolve().code</p>
                  </td>
                  <td>
                     <span style="font-weight:bold" title="MedDRA code for the Preferred Term.">
                        <a href="https://library.cdisc.org/api/mdr/cdashig/2-1/domains/AE/fields/AEPTCD">AEPTCD</a>
                     </span>
                     <br/>Core: R/C<br/>Type: Num</td>
                  <td>
                     <span style="font-weight:bold"
                           title="Dictionary-derived code for the Preferred Term.">
                        <a href="https://library.cdisc.org/api/mdr/sdtmig/3-2/datasets/AE/variables/AEPTCD">AEPTCD</a>
                     </span>
                     <br/>Core: Exp<br/>Type: Num<br/>values: MedDRA</td>
                  <td>Sponsors will populate this through the coding process and is applicable to items using MedDRA coding.</td>
               </tr>
               <tr>
                  <th>AE High Level Term</th>
                  <td>
                     <span title="Identification of the condition, problem or diagnosis.">
                        <a style="font-weight:bold"
                           href="{{site.data.fhir.path}}condition-definitions.html#Condition.code">Condition.code</a>
                     </span>
                     <br/>0..1 <a href="{{site.data.fhir.path}}datatypes.html#CodeableConcept">CodeableConcept</a>
                     <br/>Binding: <a href="http://hl7.org/fhir/ValueSet/condition-code">ConditionKind</a> 
                     <a href="{{site.data.fhir.path}}terminologies.html#example">example</a>
                  </td>
                  <td>
                     <p>AdverseEvent.resultingCondition.resolve().code</p>
                  </td>
                  <td>
                     <span style="font-weight:bold"
                           title="MedDRA text description of the High Level Term from the primary path.">
                        <a href="https://library.cdisc.org/api/mdr/cdashig/2-1/domains/AE/fields/AEHLT">AEHLT</a>
                     </span>
                     <br/>Core: R/C<br/>Type: Char</td>
                  <td>
                     <span style="font-weight:bold"
                           title="Dictionary-derived text description of the High Level Term for the primary System Organ Class.">
                        <a href="https://library.cdisc.org/api/mdr/sdtmig/3-2/datasets/AE/variables/AEHLT">AEHLT</a>
                     </span>
                     <br/>Core: Exp<br/>Type: Char<br/>values: MedDRA</td>
                  <td>Sponsors will populate this through the coding process and is applicable to items using MedDRA coding.</td>
               </tr>
               <tr>
                  <th>AE High Level Term Code</th>
                  <td>
                     <span title="Identification of the condition, problem or diagnosis.">
                        <a style="font-weight:bold"
                           href="{{site.data.fhir.path}}condition-definitions.html#Condition.code">Condition.code</a>
                     </span>
                     <br/>0..1 <a href="{{site.data.fhir.path}}datatypes.html#CodeableConcept">CodeableConcept</a>
                     <br/>Binding: <a href="http://hl7.org/fhir/ValueSet/condition-code">ConditionKind</a> 
                     <a href="{{site.data.fhir.path}}terminologies.html#example">example</a>
                  </td>
                  <td>
                     <p>AdverseEvent.resultingCondition.resolve().code</p>
                  </td>
                  <td>
                     <span style="font-weight:bold"
                           title="MedDRA High Level Term code from the primary path.">
                        <a href="https://library.cdisc.org/api/mdr/cdashig/2-1/domains/AE/fields/AEHLTCD">AEHLTCD</a>
                     </span>
                     <br/>Core: R/C<br/>Type: Num</td>
                  <td>
                     <span style="font-weight:bold"
                           title="Dictionary-derived code for the High Level Term for the primary System Organ Class.">
                        <a href="https://library.cdisc.org/api/mdr/sdtmig/3-2/datasets/AE/variables/AEHLTCD">AEHLTCD</a>
                     </span>
                     <br/>Core: Exp<br/>Type: Num<br/>values: MedDRA</td>
                  <td>Sponsors will populate this through the coding process and is applicable to items using MedDRA coding.</td>
               </tr>
               <tr>
                  <th>AE High Level Group Term</th>
                  <td>
                     <span title="Identification of the condition, problem or diagnosis.">
                        <a style="font-weight:bold"
                           href="{{site.data.fhir.path}}condition-definitions.html#Condition.code">Condition.code</a>
                     </span>
                     <br/>0..1 <a href="{{site.data.fhir.path}}datatypes.html#CodeableConcept">CodeableConcept</a>
                     <br/>Binding: <a href="http://hl7.org/fhir/ValueSet/condition-code">ConditionKind</a> 
                     <a href="{{site.data.fhir.path}}terminologies.html#example">example</a>
                  </td>
                  <td>
                     <p>AdverseEvent.resultingCondition.resolve().code</p>
                  </td>
                  <td>
                     <span style="font-weight:bold"
                           title="MedDRA text description of the High Level Group Term from the primary path.">
                        <a href="https://library.cdisc.org/api/mdr/cdashig/2-1/domains/AE/fields/AEHLGT">AEHLGT</a>
                     </span>
                     <br/>Core: R/C<br/>Type: Char</td>
                  <td>
                     <span style="font-weight:bold"
                           title="Dictionary-derived text description of the High Level Group Term for the primary System Organ Class.">
                        <a href="https://library.cdisc.org/api/mdr/sdtmig/3-2/datasets/AE/variables/AEHLGT">AEHLGT</a>
                     </span>
                     <br/>Core: Exp<br/>Type: Char<br/>values: MedDRA</td>
                  <td>Sponsors will populate this through the coding process and is applicable to items using MedDRA coding.</td>
               </tr>
               <tr>
                  <th>AE High Level Group Term Code</th>
                  <td>
                     <span title="Identification of the condition, problem or diagnosis.">
                        <a style="font-weight:bold"
                           href="{{site.data.fhir.path}}condition-definitions.html#Condition.code">Condition.code</a>
                     </span>
                     <br/>0..1 <a href="{{site.data.fhir.path}}datatypes.html#CodeableConcept">CodeableConcept</a>
                     <br/>Binding: <a href="http://hl7.org/fhir/ValueSet/condition-code">ConditionKind</a> 
                     <a href="{{site.data.fhir.path}}terminologies.html#example">example</a>
                  </td>
                  <td>
                     <p>AdverseEvent.resultingCondition.resolve().code</p>
                  </td>
                  <td>
                     <span style="font-weight:bold"
                           title="MedDRA High Level Group Term code from the primary path.">
                        <a href="https://library.cdisc.org/api/mdr/cdashig/2-1/domains/AE/fields/AEHLGTCD">AEHLGTCD</a>
                     </span>
                     <br/>Core: R/C<br/>Type: Num</td>
                  <td>
                     <span style="font-weight:bold"
                           title="Dictionary-derived code for the High Level Group Term for the primary System Organ Class.">
                        <a href="https://library.cdisc.org/api/mdr/sdtmig/3-2/datasets/AE/variables/AEHLGTCD">AEHLGTCD</a>
                     </span>
                     <br/>Core: Exp<br/>Type: Num<br/>values: MedDRA</td>
                  <td>Sponsors will populate this through the coding process and is applicable to items using MedDRA coding.</td>
               </tr>
               <tr>
                  <th>AE Primary System Organ Class</th>
                  <td>
                     <span title="Identification of the condition, problem or diagnosis.">
                        <a style="font-weight:bold"
                           href="{{site.data.fhir.path}}condition-definitions.html#Condition.code">Condition.code</a>
                     </span>
                     <br/>0..1 <a href="{{site.data.fhir.path}}datatypes.html#CodeableConcept">CodeableConcept</a>
                     <br/>Binding: <a href="http://hl7.org/fhir/ValueSet/condition-code">ConditionKind</a> 
                     <a href="{{site.data.fhir.path}}terminologies.html#example">example</a>
                  </td>
                  <td>
                     <p>AdverseEvent.resultingCondition.resolve().code</p>
                  </td>
                  <td>
                     <span style="font-weight:bold"
                           title="MedDRA Primary System Organ Class text description associated with the event.">
                        <a href="https://library.cdisc.org/api/mdr/cdashig/2-1/domains/AE/fields/AESOC">AESOC</a>
                     </span>
                     <br/>Core: R/C<br/>Type: Char</td>
                  <td>
                     <span style="font-weight:bold"
                           title="Dictionary-derived text description of the primary System Organ Class. Will be the same as AEBODSYS if the primary SOC was used for analysis.">
                        <a href="https://library.cdisc.org/api/mdr/sdtmig/3-2/datasets/AE/variables/AESOC">AESOC</a>
                     </span>
                     <br/>Core: Exp<br/>Type: Char<br/>values: MedDRA</td>
                  <td>Sponsors will populate this through the coding process and is applicable to items using MedDRA coding.</td>
               </tr>
               <tr>
                  <th>AE Primary System Organ Class Code</th>
                  <td>
                     <span title="Identification of the condition, problem or diagnosis.">
                        <a style="font-weight:bold"
                           href="{{site.data.fhir.path}}condition-definitions.html#Condition.code">Condition.code</a>
                     </span>
                     <br/>0..1 <a href="{{site.data.fhir.path}}datatypes.html#CodeableConcept">CodeableConcept</a>
                     <br/>Binding: <a href="http://hl7.org/fhir/ValueSet/condition-code">ConditionKind</a> 
                     <a href="{{site.data.fhir.path}}terminologies.html#example">example</a>
                  </td>
                  <td>
                     <p>AdverseEvent.resultingCondition.resolve().code</p>
                  </td>
                  <td>
                     <span style="font-weight:bold"
                           title="MedDRA code for the primary System Organ Class.">
                        <a href="https://library.cdisc.org/api/mdr/cdashig/2-1/domains/AE/fields/AESOCCD">AESOCCD</a>
                     </span>
                     <br/>Core: R/C<br/>Type: Num</td>
                  <td>
                     <span style="font-weight:bold"
                           title="Dictionary-derived code for the primary System Organ Class. Will be the same as AEBDSYCD if the primary SOC was used for analysis.">
                        <a href="https://library.cdisc.org/api/mdr/sdtmig/3-2/datasets/AE/variables/AESOCCD">AESOCCD</a>
                     </span>
                     <br/>Core: Exp<br/>Type: Num<br/>values: MedDRA</td>
                  <td>Sponsors will populate this through the coding process and is applicable to items using MedDRA coding.</td>
               </tr>
               <tr>
                  <th>Any Other Actions Taken</th>
                  <td>
                     <span title="May be used to represent additional information that is not part of the basic definition of the resource. To make the use of extensions safe and manageable, there is a strict set of governance  applied to the definition and use of extensions. Though any implementer can define an extension, there is a set of requirements that SHALL be met as part of the definition of the extension.">
                        <a style="font-weight:bold"
                           href="{{site.data.fhir.path}}adverseevent-definitions.html#AdverseEvent.extension">AdverseEvent.extension</a>
                     </span>
                     <br/>0..* <a href="{{site.data.fhir.path}}datatypes.html#Extension">Extension</a>
                  </td>
                  <td>
                     <p>AdverseEvent.extension(AdverseEvent.mitigatingAction).extension(item).valueCodeableConcept</p>
                  </td>
                  <td>
                     <span style="font-weight:bold"
                           title="An indication whether any other actions were taken in response to the adverse event that were unrelated to study treatment dose changes or other non-study treatments given because of this adverse event.">
                        <a href="https://library.cdisc.org/api/mdr/cdashig/2-1/domains/AE/fields/AEACNOYN">AEACNOYN</a>
                     </span>
                     <br/>Core: O<br/>Type: Char</td>
                  <td>
                     <span style="font-weight:bold"/>
                  </td>
                  <td>R5 pre-adoption extension.  Note that mitigatingActions also include treatments, so codes would need to be examined to only map those that were NOT treatments</td>
               </tr>
            </tbody>
         </table>
      </div>
   </div>
</div>
        {% assign includetabscripts = 'true' %}
      