<div xmlns:xs="http://www.w3.org/2001/XMLSchema"
     xmlns:fn="http://www.w3.org/2005/xpath-functions">
   <p>
        Guidance on interpreting the table can be found <a href="overview.html#mappings">here</a>.
      </p>
   <table class="grid"
          style="width:150%;word-break:break-word;table-layout:fixed;">
      <col style="width:15%"/>
      <col style="width:7.5%"/>
      <col style="width:7.5%"/>
      <col style="width:15%;"/>
      <col style="width:20%;"/>
      <col style="width:35%;"/>
      <thead style="background-color:PowderBlue;">
         <tr>
            <th colspan="3" style="text-align:center;">CDISC</th>
            <th colspan="2" style="text-align:center;">FHIR map (or gap)</th>
            <th rowspan="2" style="vertical-align:bottom;text-align:center;">Comment</th>
         </tr>
         <tr style="text-align:center;">
            <th style="text-align:center;">Name</th>
            <th style="text-align:center;">CDASH</th>
            <th style="text-align:center;">SDTM</th>
            <th style="text-align:center;">Element</th>
            <th style="text-align:center;">FHIRPath</th>
         </tr>
      </thead>
      <tbody>
         <tr>
            <th>Study Identifier</th>
            <td>
               <span>STUDYID</span>
            </td>
            <td>
               <span title="The corresponding CDASH Variable(s) map directly to identified SDTM Variable(s).">STUDYID</span>
            </td>
            <td>ResearchStudy.ResearchStudy.identifier</td>
            <td>
               <p>ResearchSubject.where(subject=(MedicationStatement.subject|MedicationRequest.subject|MedicationDispense.subject|MedicationAdministration.subject|Immunizations.patient)).study.resolve().partOf.resolve().identifier.value</p>
               <p>MedicationStatement.extension(workflow-researchstudy).valueReference.resolve().partOf.resolve().identifier.value</p>
               <p>MedicationRequest.extension(workflow-researchstudy).valueReference.resolve().partOf.resolve().identifier.value</p>
               <p>MedicationDispense.extension(workflow-researchstudy).valueReference.resolve().partOf.resolve().identifier.value</p>
               <p>MedicationAdministration.extension(workflow-researchstudy).valueReference.resolve().partOf.resolve().identifier.value</p>
               <p>Immunization.extension(workflow-researchstudy).valueReference.resolve().partOf.resolve().identifier.value</p>
            </td>
            <td>Mapping is based on presumption that research subject will be tied to site-specific ResearchStudy, which will then be part of overall ResearchStudy.<br/>
               <br/>The path using the extension will only exist if the system maintaining the MedicationStatement/Request/Dispense/Administration or Immunization is aware of its relevance to the Study.</td>
         </tr>
         <tr>
            <th>Study Site Identifier</th>
            <td>
               <span>SITEID</span>
            </td>
            <td>
               <span title="The corresponding CDASH Variable(s) map directly to identified SDTM Variable(s).">DM.SITEID</span>
            </td>
            <td>ResearchStudy.ResearchStudy.site</td>
            <td>
               <p>ResearchSubject.where(subject=(MedicationStatement.subject|MedicationRequest.subject|MedicationDispense.subject|MedicationAdministration.subject|Immunizations.patient)).study.resolve().identifier.value</p>
               <p>MedicationStatement.extension(workflow-researchstudy).valueReference.resolve().identifier.value</p>
               <p>MedicationRequest.extension(workflow-researchstudy).valueReference.resolve().identifier.value</p>
               <p>MedicationDispense.extension(workflow-researchstudy).valueReference.resolve().identifier.value</p>
               <p>MedicationAdministration.extension(workflow-researchstudy).valueReference.resolve().identifier.value</p>
               <p>Immunization.extension(workflow-researchstudy).valueReference.resolve().identifier.value</p>
            </td>
            <td>Mapping is based on presumption that research subject will be tied to site-specific ResearchStudy, which will then be part of overall ResearchStudy.<br/>
               <br/>The path using the extension will only exist if the system maintaining the MedicationStatement/Request/Dispense/Administration or Immunization is aware of its relevance to the Study.</td>
         </tr>
         <tr>
            <th>Subject Identifier for the Study</th>
            <td>
               <span>SUBJID</span>
            </td>
            <td>
               <span title="The corresponding CDASH Variable(s) map directly to identified SDTM Variable(s).">DM.SUBJID</span>
            </td>
            <td>ResearchSubject.ResearchSubject.identifier</td>
            <td>
               <p>ResearchSubject.where(individual=(MedicationStatement.subject|MedicationRequest.subject|MedicationDispense.subject|MedicationAdministration.subject|Immunizations.patient).identifier.value</p>
            </td>
            <td>Study subject is found by finding the StudySubject that corresponds to the same Patient and ResearchStudy as the focal resource.<br/>
               <br/>No standard way to decide which subject identifier to use</td>
         </tr>
         <tr>
            <th rowspan="4">Category for Medication</th>
            <td rowspan="4">
               <span>CMCAT</span>
            </td>
            <td rowspan="4">
               <span title="The corresponding CDASH Variable(s) map directly to identified SDTM Variable(s).">CMCAT</span>
            </td>
            <td>MedicationStatement.MedicationStatement.category</td>
            <td>
               <p>MedicationStatement.category</p>
            </td>
            <td rowspan="4">In FHIR, an medication can be categorized in multiple ways and to the granularity  desired.  When converting from FHIR to CDASH, systems will need to look at the FHIR categories (and potentially other information) to determine how best to populate CMCAT and CMSCAT based on the study-designed categories (unless they've pre-arranged with the EHR to ensure it captures the same codes)</td>
         </tr>
         <tr>
            <td>MedicationRequest.MedicationRequest.category</td>
            <td>
               <p>MedicationRequest.category</p>
            </td>
         </tr>
         <tr>
            <td>MedicationDispense.MedicationDispense.category</td>
            <td>
               <p>MedicationDispense.category</p>
            </td>
         </tr>
         <tr>
            <td>MedicationAdministration.MedicationAdministration.category</td>
            <td>
               <p>MedicationAdministration.category</p>
            </td>
         </tr>
         <tr>
            <th rowspan="4">Subcategory for Medication</th>
            <td rowspan="4">
               <span>CMSCAT</span>
            </td>
            <td rowspan="4">
               <span title="The corresponding CDASH Variable(s) map directly to identified SDTM Variable(s).">CMSCAT</span>
            </td>
            <td>MedicationStatement.MedicationStatement.category</td>
            <td>
               <p>MedicationStatement.category</p>
            </td>
            <td rowspan="4">In FHIR, an medication can be categorized in multiple ways and to the granularity  desired.  When converting from FHIR to CDASH, systems will need to look at the FHIR categories (and potentially other information) to determine how best to populate CMCAT and CMSCAT based on the study-designed categories (unless they've pre-arranged with the EHR to ensure it captures the same codes)</td>
         </tr>
         <tr>
            <td>MedicationRequest.MedicationRequest.category</td>
            <td>
               <p>MedicationRequest.category</p>
            </td>
         </tr>
         <tr>
            <td>MedicationDispense.MedicationDispense.category</td>
            <td>
               <p>MedicationDispense.category</p>
            </td>
         </tr>
         <tr>
            <td>MedicationAdministration.MedicationAdministration.category</td>
            <td>
               <p>MedicationAdministration.category</p>
            </td>
         </tr>
         <tr>
            <th>Any Concomitant Medications Taken</th>
            <td>
               <span>CMYN</span>
            </td>
            <td>
               <span title="Does not map to an SDTMIG variable.  The SDTM Annotated CRF is annotated to indicate that this field is NOT SUBMITTED."/>
            </td>
            <td colspan="2" style="background-color:LightGray">This would be determined by dates within the protocol.  <br/>
               <br/>What constitutes a 'concomitant' drug is study-specific and would need to be evaluated on a study level.  FHIR would not normally store that information. However an extension on ResearchSubject could be utilized or could be captured in a Questionnaire.</td>
            <td/>
         </tr>
         <tr>
            <th rowspan="5">CM Sponsor-Defined Identifier</th>
            <td rowspan="5">
               <span>CMSPID</span>
            </td>
            <td rowspan="5">
               <span title="The corresponding CDASH Variable(s) map directly to identified SDTM Variable(s).  May be used to create RELREC to link this record with a record in another domain.">CMSPID</span>
            </td>
            <td>MedicationStatement.MedicationStatement.identifier</td>
            <td>
               <p>MedicationStatement.identifier</p>
            </td>
            <td rowspan="5"/>
         </tr>
         <tr>
            <td>MedicationRequest.MedicationRequest.identifier</td>
            <td>
               <p>MedicationRequest.identifier</p>
            </td>
         </tr>
         <tr>
            <td>MedicationDispense.MedicationDispense.identifier</td>
            <td>
               <p>MedicationDispense.identifier</p>
            </td>
         </tr>
         <tr>
            <td>MedicationAdministration.MedicationAdministration.identifier</td>
            <td>
               <p>MedicationAdministration.identifier</p>
            </td>
         </tr>
         <tr>
            <td>Immunization.Immunization.identifier</td>
            <td>
               <p>Immunization.identifier</p>
            </td>
         </tr>
         <tr>
            <th rowspan="9">Reported Name of Drug, Med, or Therapy</th>
            <td rowspan="9">
               <span>CMTRT</span>
            </td>
            <td rowspan="9">
               <span title="The corresponding CDASH Variable(s) map directly to identified SDTM Variable(s).">CMTRT</span>
            </td>
            <td>MedicationStatement.MedicationStatement.medicationCodeableConcept</td>
            <td>
               <p>MedicationStatement.medication.medicationCodeableConcept</p>
            </td>
            <td rowspan="9"/>
         </tr>
         <tr>
            <td>MedicationStatement.MedicationStatement.medicationReference</td>
            <td>
               <p>MedicationStatement.medication.medicationReference.resolve().code</p>
            </td>
         </tr>
         <tr>
            <td>MedicationRequest.MedicationRequest.medicationCodeableConcept</td>
            <td>
               <p>MedicationRequest.medication.medicationCodeableConcept</p>
            </td>
         </tr>
         <tr>
            <td>MedicationRequest.MedicationRequest.medicationReference</td>
            <td>
               <p>MedicationRequest.medication.medicationReference.resolve().code</p>
            </td>
         </tr>
         <tr>
            <td>MedicationDispense.MedicationDispense.medicationCodeableConcept</td>
            <td>
               <p>MedicationDispense.medication.medicationCodeableConcept</p>
            </td>
         </tr>
         <tr>
            <td>MedicationDispense.MedicationDispense.medicationReference</td>
            <td>
               <p>MedicationDispense.medication.medicationReference.resolve().code</p>
            </td>
         </tr>
         <tr>
            <td>MedicationAdministration.MedicationAdministration.medicationCodeableConcept</td>
            <td>
               <p>MedicationAdministration.medication.medicationCodeableConcept</p>
            </td>
         </tr>
         <tr>
            <td>MedicationAdministration.MedicationAdministration.medicationReference</td>
            <td>
               <p>MedicationAdministration.medication.medicationReference.resolve().code</p>
            </td>
         </tr>
         <tr>
            <td>Immunization.Immunization.vaccineCode</td>
            <td>
               <p>Immunization.vaccineCode</p>
            </td>
         </tr>
         <tr>
            <th>CM Pre-Specified</th>
            <td>
               <span>CMPRESP</span>
            </td>
            <td>
               <span title="The corresponding CDASH Variable(s) map directly to identified SDTM Variable(s).">CMPRESP</span>
            </td>
            <td colspan="2" style="background-color:LightGray">Would not expect to receive from the site.
</td>
            <td/>
         </tr>
         <tr>
            <th rowspan="6">CM Occurrence</th>
            <td rowspan="6">
               <span>CMOCCUR</span>
            </td>
            <td rowspan="6">
               <span title="The corresponding CDASH Variable(s) map directly to identified SDTM Variable(s).">CMOCCUR</span>
            </td>
            <td>MedicationStatement.MedicationStatement.status</td>
            <td>
               <p>MedicationStatement.status</p>
            </td>
            <td rowspan="6">In general, medication records won't exist unless the patient is taking the medication, though there is an ability to say a medication isn't currently being taken or shouldn't be taken</td>
         </tr>
         <tr>
            <td>MedicationRequest.MedicationRequest.doNotPerform</td>
            <td>
               <p>MedicationRequest.doNotPerform=true</p>
            </td>
         </tr>
         <tr>
            <td>MedicationRequest.MedicationRequest.status</td>
            <td>
               <p>MedicationRequest.status IN {'entered-in-error'|'cancelled'|'stopped'}</p>
            </td>
         </tr>
         <tr>
            <td>MedicationDispense.MedicationDispense.status</td>
            <td>
               <p>MedicationRequest.status IN {entered-in-error'|'cancelled'|'stopped'}</p>
            </td>
         </tr>
         <tr>
            <td>MedicationAdministration.MedicationAdministration.status</td>
            <td>
               <p>MedicationAdministration.status</p>
            </td>
         </tr>
         <tr>
            <td>Immunization.Immunization.status</td>
            <td>
               <p>Immunization.status IN {'completed'|'entered-in-error'}</p>
            </td>
         </tr>
         <tr>
            <th rowspan="5">Concomitant Meds Active Ingredients</th>
            <td rowspan="5">
               <span>CMINGRD</span>
            </td>
            <td rowspan="5">
               <span title="Does not map to an SDTMIG variable.  The SDTM Annotated CRF is annotated to indicate that this field is NOT SUBMITTED."/>
            </td>
            <td>Medication.Medication.ingredient</td>
            <td>
               <p>MedicationStatement.medicationReference.resolve().ingredient.where(isActive)</p>
            </td>
            <td rowspan="5"/>
         </tr>
         <tr>
            <td>Medication.Medication.ingredient</td>
            <td>
               <p>MedicationRequest.medicationReference.resolve().ingredient.where(isActive)</p>
            </td>
         </tr>
         <tr>
            <td>Medication.Medication.ingredient</td>
            <td>
               <p>MedicationDispense.medicationReference.resolve().ingredient.where(isActive)</p>
            </td>
         </tr>
         <tr>
            <td>Medication.Medication.ingredient</td>
            <td>
               <p>MedicationAdministration.medicationReference.resolve().ingredient.where(isActive)</p>
            </td>
         </tr>
         <tr>
            <td>Medication.Medication.ingredient</td>
            <td>
               <p>Immunization.medicationReference.resolve().ingredient.where(isActive)</p>
            </td>
         </tr>
         <tr>
            <th rowspan="4">CM Indication</th>
            <td rowspan="4">
               <span>CMINDC</span>
            </td>
            <td rowspan="4">
               <span title="The corresponding CDASH Variable(s) map directly to identified SDTM Variable(s).">CMINDC</span>
            </td>
            <td>MedicationStatement.MedicationStatement.reasonCode</td>
            <td>
               <p>MedicationStatement.reasonCode</p>
            </td>
            <td rowspan="4"/>
         </tr>
         <tr>
            <td>MedicationRequest.MedicationRequest.reasonCode</td>
            <td>
               <p>MedicationRequest.reasonCode</p>
            </td>
         </tr>
         <tr>
            <td>MedicationAdministration.MedicationAdministration.reasonCode</td>
            <td>
               <p>MedicationAdministration.reasonCode</p>
            </td>
         </tr>
         <tr>
            <td>Immunization.Immunization.reasonCode</td>
            <td>
               <p>Immunization.reasonCode</p>
            </td>
         </tr>
         <tr>
            <th>Related Adverse Event ID</th>
            <td>
               <span>CMAENO</span>
            </td>
            <td>
               <span title="This does not map directly to an SDTMIG variable.  For the SDTM submission datasets, may be used to create RELREC to link this record with a record in the AdverseEvent domain."/>
            </td>
            <td>AdverseEvent.AdverseEvent.identifier</td>
            <td>
               <p>AdverseEvent.where(suspectEntity.instanceReference=MedicationX).identifier</p>
            </td>
            <td>This could match on AdverseEvent by code.  (Note that the AdverseEvent points to the medication record, not the reverse</td>
         </tr>
         <tr>
            <th rowspan="4">Related Medical History Event ID</th>
            <td rowspan="4">
               <span>CMMHNO</span>
            </td>
            <td rowspan="4">
               <span title="This does not map directly to an SDTMIG variable.  For the SDTM submission datasets, may be used to create RELREC to link this record with a record in the AdverseEvent domain."/>
            </td>
            <td>Condition.Condition.identifier</td>
            <td>
               <p>MedicationStatement.reasonReference.resolve().identifier</p>
            </td>
            <td rowspan="4"/>
         </tr>
         <tr>
            <td>Condition.Condition.identifier</td>
            <td>
               <p>MedicationRequest.reasonReference.resolve().identifier</p>
            </td>
         </tr>
         <tr>
            <td>Condition.Condition.identifier</td>
            <td>
               <p>MedicationAdministration.reasonReference.resolve().identifier</p>
            </td>
         </tr>
         <tr>
            <td>Immunization.Immunization.identifier</td>
            <td>
               <p>Immunization.reasonReference.resolve().identifier</p>
            </td>
         </tr>
         <tr>
            <th rowspan="5">CM Dose per Administration</th>
            <td rowspan="5">
               <span>CMDOSE</span>
            </td>
            <td rowspan="5">
               <span title="The corresponding CDASH Variable(s) map directly to identified SDTM Variable(s). in the column with the heading &#34;SDTMIG Target&#34;.">CMDOSE</span>
            </td>
            <td>MedicationStatement.MedicationStatement.dosage</td>
            <td>
               <p>MedicationStatement.dosage.doseAndRate.doseQuantity</p>
            </td>
            <td rowspan="5"/>
         </tr>
         <tr>
            <td>MedicationRequest.MedicationRequest.dosageInstruction</td>
            <td>
               <p>MedicationRequest.dosageInstruction.doseAndRate.doseQuantity</p>
            </td>
         </tr>
         <tr>
            <td>MedicationDispense.MedicationDispense.dosageInstruction</td>
            <td>
               <p>MedicationDispense.dosageInstruction.doseAndRate.doseQuantity</p>
            </td>
         </tr>
         <tr>
            <td>MedicationAdministration.MedicationAdministration.dosage.dose</td>
            <td>
               <p>MedicationAdministration.dosage.dose</p>
            </td>
         </tr>
         <tr>
            <td>Immunization.Immunization.doseQuantity</td>
            <td>
               <p>Immunization.doseQuantity</p>
            </td>
         </tr>
         <tr>
            <th rowspan="4">Concomitant Meds Dose Description</th>
            <td rowspan="4">
               <span>CMDSTXT</span>
            </td>
            <td rowspan="4">
               <span title="This does not map directly to an SDTMIG variable.  Numeric values map to CMDOSE in SDTM.  Non-numeric values (e.g., 200 - 400) map to CMDOSTXT in SDTM.">CMDOSTXT</span>
               <span title="This does not map directly to an SDTMIG variable.  Numeric values map to CMDOSE in SDTM.  Non-numeric values (e.g., 200 - 400) map to CMDOSTXT in SDTM.">CMDOSE</span>
            </td>
            <td>MedicationStatement.MedicationStatement.dosage</td>
            <td>
               <p>MedicationStatement.dosage.text</p>
            </td>
            <td rowspan="4">Requires combining multiple repetitions together</td>
         </tr>
         <tr>
            <td>MedicationRequest.MedicationRequest.dosageInstruction</td>
            <td>
               <p>MedicationRequest.dosageInstruction.text</p>
            </td>
         </tr>
         <tr>
            <td>MedicationDispense.MedicationDispense.dosageInstruction</td>
            <td>
               <p>MedicationDispense.dosageInstruction.text</p>
            </td>
         </tr>
         <tr>
            <td>MedicationAdministration.MedicationAdministration.dosage.text</td>
            <td>
               <p>MedicationAdministration.dosage.text</p>
            </td>
         </tr>
         <tr>
            <th rowspan="4">CM Total Daily Dose</th>
            <td rowspan="4">
               <span>CMDOSTOT</span>
            </td>
            <td rowspan="4">
               <span title="The corresponding CDASH Variable(s) map directly to identified SDTM Variable(s).">CMDOSTOT</span>
            </td>
            <td>MedicationStatement.MedicationStatement.dosage</td>
            <td>
               <p>MedicationStatement.dosage.maxDosePerPeriod</p>
            </td>
            <td rowspan="4">If Total Daily Dose is required by the sponsor, it may require collection of the drug dose and  frequency to derive the CM Total Daily Dose. </td>
         </tr>
         <tr>
            <td>MedicationRequest.MedicationRequest.dosageInstruction</td>
            <td>
               <p>MedicationRequest.dosageInstruction.dosage.maxDosePerPeriod</p>
            </td>
         </tr>
         <tr>
            <td>MedicationDispense.MedicationDispense.dosageInstruction</td>
            <td>
               <p>MedicationDispense.dosageInstruction.dosage.maxDosePerPeriod</p>
            </td>
         </tr>
         <tr>
            <td>Immunization.Immunization.doseQuantity</td>
            <td>
               <p>Immunization.doseQuantity</p>
            </td>
         </tr>
         <tr>
            <th rowspan="3">CM Dose Units</th>
            <td rowspan="3">
               <span>CMDOSU</span>
            </td>
            <td rowspan="3">
               <span title="The corresponding CDASH Variable(s) map directly to identified SDTM Variable(s).">CMDOSU</span>
            </td>
            <td>MedicationStatement.MedicationStatement.dosage</td>
            <td>
               <p>MedicationStatement.dosage.maxDosePerPeriod.code</p>
            </td>
            <td rowspan="3"/>
         </tr>
         <tr>
            <td>MedicationRequest.MedicationRequest.dosageInstruction</td>
            <td>
               <p>MedicationRequest.dosageInstruction.maxDosePerPeriod.code</p>
            </td>
         </tr>
         <tr>
            <td>MedicationDispense.MedicationDispense.dosageInstruction</td>
            <td>
               <p>MedicationDispense.dosageInstruction.maxDosePerPeriod.code</p>
            </td>
         </tr>
         <tr>
            <th rowspan="3">CM Dose Form</th>
            <td rowspan="3">
               <span>CMDOSFRM</span>
            </td>
            <td rowspan="3">
               <span title="The corresponding CDASH Variable(s) map directly to identified SDTM Variable(s).">CMDOSFRM</span>
            </td>
            <td>Medication.Medication.form</td>
            <td>
               <p>MedicationStatement.medicationReference.resolve().form</p>
            </td>
            <td rowspan="3"/>
         </tr>
         <tr>
            <td>Medication.Medication.form</td>
            <td>
               <p>MedicationRequest.medicationReference.resolve().form</p>
            </td>
         </tr>
         <tr>
            <td>Medication.Medication.form</td>
            <td>
               <p>MedicationDispense.medicationReference.resolve().form</p>
            </td>
         </tr>
         <tr>
            <th rowspan="3">CM Dosing Frequency per Interval</th>
            <td rowspan="3">
               <span>CMDOSFRQ</span>
            </td>
            <td rowspan="3">
               <span title="The corresponding CDASH Variable(s) map directly to identified SDTM Variable(s).">CMDOSFRQ</span>
            </td>
            <td>MedicationStatement.MedicationStatement.dosage</td>
            <td>
               <p>MedicationStatement.dosage.timing.frequency</p>
            </td>
            <td rowspan="3"/>
         </tr>
         <tr>
            <td>MedicationRequest.MedicationRequest.dosageInstruction</td>
            <td>
               <p>MedicationRequest.dosageInstruction.timing.frequencey</p>
            </td>
         </tr>
         <tr>
            <td>MedicationDispense.MedicationDispense.dosageInstruction</td>
            <td>
               <p>MedicationDispense.dosageInstruction.timing.frequency</p>
            </td>
         </tr>
         <tr>
            <th rowspan="5">CM Route of Administration</th>
            <td rowspan="5">
               <span>CMROUTE</span>
            </td>
            <td rowspan="5">
               <span title="The corresponding CDASH Variable(s) map directly to identified SDTM Variable(s).">CMROUTE</span>
            </td>
            <td>MedicationStatement.MedicationStatement.dosage</td>
            <td>
               <p>MedicationStatement.dosage.route</p>
            </td>
            <td rowspan="5"/>
         </tr>
         <tr>
            <td>MedicationRequest.MedicationRequest.dosageInstruction</td>
            <td>
               <p>MedicationRequest.dosageInstruction.route</p>
            </td>
         </tr>
         <tr>
            <td>MedicationDispense.MedicationDispense.dosageInstruction</td>
            <td>
               <p>MedicationDispense.dosageInstruction.route</p>
            </td>
         </tr>
         <tr>
            <td>MedicationAdministration.MedicationAdministration.dosage.route</td>
            <td>
               <p>MedicationAdministration.dosage.route</p>
            </td>
         </tr>
         <tr>
            <td>Immunization.Immunization.route</td>
            <td>
               <p>Immunization.route</p>
            </td>
         </tr>
         <tr>
            <th rowspan="6">Concomitant Meds Start Date</th>
            <td rowspan="6">
               <span>CMSTDAT</span>
            </td>
            <td rowspan="6">
               <span title="This does not map directly to an SDTMIG variable.  For the SDTM submission datasets, concatenate all collected CDASH START DATE and TIME components and populate the SDTMIG variable CDSTDTC in ISO 8601 format.">CMSTDTC</span>
            </td>
            <td>MedicationStatement.MedicationStatement.effectiveDateTime</td>
            <td>
               <p>MedicationStatement.effectiveDateTime</p>
            </td>
            <td rowspan="6">Start includes both date and time, though time commonly won't be specified.  If string is specified, it will have to be parsed and converted to whatever precision is posisble</td>
         </tr>
         <tr>
            <td>MedicationStatement.MedicationStatement.effectivePeriod</td>
            <td>
               <p>MedicationStatement.effectivePeriod.start</p>
            </td>
         </tr>
         <tr>
            <td>MedicationRequest.MedicationRequest.dosageInstruction</td>
            <td>
               <p>MedicationRequest.dosageInstruction.timing.repeat.boundsPeriod.start</p>
            </td>
         </tr>
         <tr>
            <td>MedicationDispense.MedicationDispense.dosageInstruction</td>
            <td>
               <p>MedicationDispense.dosageInstruction.timing.repeat.boundsPeriod.start</p>
            </td>
         </tr>
         <tr>
            <td>Immunization.Immunization.occurrenceDateTime</td>
            <td>
               <p>Immunization.occurrenceDateTime</p>
            </td>
         </tr>
         <tr>
            <td>Immunization.Immunization.occurrenceString</td>
            <td>
               <p>Immunization.occurrenceString</p>
            </td>
         </tr>
         <tr>
            <th rowspan="6">Concomitant Meds Start Time</th>
            <td rowspan="6">
               <span>CMSTTIM</span>
            </td>
            <td rowspan="6">
               <span title="This does not map directly to an SDTMIG variable.  For the SDTM submission datasets, concatenate all collected CDASH START DATE and TIME components and populate the SDTMIG variable CDSTDTC in ISO 8601 format.">CMSTDTC</span>
            </td>
            <td>MedicationStatement.MedicationStatement.effectiveDateTime</td>
            <td>
               <p>MedicationStatement.effectiveDateTime</p>
            </td>
            <td rowspan="6">Start includes both date and time, though time commonly won't be specified.  If string is specified, it will have to be parsed and converted to whatever precision is posisble</td>
         </tr>
         <tr>
            <td>MedicationStatement.MedicationStatement.effectivePeriod</td>
            <td>
               <p>MedicationStatement.effectivePeriod.start</p>
            </td>
         </tr>
         <tr>
            <td>MedicationRequest.MedicationRequest.dosageInstruction</td>
            <td>
               <p>MedicationRequest.dosageInstruction.timing.repeat.boundsPeriod.start</p>
            </td>
         </tr>
         <tr>
            <td>MedicationDispense.MedicationDispense.dosageInstruction</td>
            <td>
               <p>MedicationDispense.dosageInstruction.timing.repeat.boundsPeriod.start</p>
            </td>
         </tr>
         <tr>
            <td>Immunization.Immunization.occurrenceDateTime</td>
            <td>
               <p>Immunization.occurrenceDateTime</p>
            </td>
         </tr>
         <tr>
            <td>Immunization.Immunization.occurrenceString</td>
            <td>
               <p>Immunization.occurrenceString</p>
            </td>
         </tr>
         <tr>
            <th rowspan="6">Concomitant Meds End Date</th>
            <td rowspan="6">
               <span>CMENDAT</span>
            </td>
            <td rowspan="6">
               <span title="This does not map directly to an SDTMIG variable.  For the SDTM submission datasets, concatenate all collected CDASH START DATE and TIME components and populate the SDTMIG variable CMSTDTC in ISO 8601 format.">CMSTDTC</span>
            </td>
            <td>MedicationStatement.MedicationStatement.effectiveDateTime</td>
            <td>
               <p>MedicationStatement.effectiveDateTime</p>
            </td>
            <td rowspan="6">End includes both date and time, though time commonly won't be specified.  If string is specified, it will have to be parsed and converted to whatever precision is posisble</td>
         </tr>
         <tr>
            <td>MedicationStatement.MedicationStatement.effectivePeriod</td>
            <td>
               <p>MedicationStatement.effectivePeriod.end</p>
            </td>
         </tr>
         <tr>
            <td>MedicationRequest.MedicationRequest.dosageInstruction</td>
            <td>
               <p>MedicationRequest.dosageInstruction.timing.repeat.boundsPeriod.end</p>
            </td>
         </tr>
         <tr>
            <td>MedicationDispense.MedicationDispense.dosageInstruction</td>
            <td>
               <p>MedicationDispense.dosageInstruction.timing.repeat.boundsPeriod.end</p>
            </td>
         </tr>
         <tr>
            <td>Immunization.Immunization.occurrenceDateTime</td>
            <td>
               <p>Immunization.occurrenceDateTime</p>
            </td>
         </tr>
         <tr>
            <td>Immunization.Immunization.occurrenceString</td>
            <td>
               <p>Immunization.occurrenceString</p>
            </td>
         </tr>
         <tr>
            <th rowspan="6">Concomitant Meds End Time</th>
            <td rowspan="6">
               <span>CMENTIM</span>
            </td>
            <td rowspan="6">
               <span title="This does not map directly to an SDTMIG variable.  For the SDTM submission datasets, concatenate all collected CDASH END DATE and TIME components and populate the SDTMIG variable CMENDTC in ISO 8601 format.">CMENDTC</span>
            </td>
            <td>MedicationStatement.MedicationStatement.effectiveDateTime</td>
            <td>
               <p>MedicationStatement.effectiveDateTime</p>
            </td>
            <td rowspan="6">End includes both date and time, though time commonly won't be specified.  If string is specified, it will have to be parsed and converted to whatever precision is posisble</td>
         </tr>
         <tr>
            <td>MedicationStatement.MedicationStatement.effectivePeriod</td>
            <td>
               <p>MedicationStatement.effectivePeriod.end</p>
            </td>
         </tr>
         <tr>
            <td>MedicationRequest.MedicationRequest.dosageInstruction</td>
            <td>
               <p>MedicationRequest.dosageInstruction.timing.repeat.boundsPeriod.end</p>
            </td>
         </tr>
         <tr>
            <td>MedicationDispense.MedicationDispense.dosageInstruction</td>
            <td>
               <p>MedicationDispense.dosageInstruction.timing.repeat.boundsPeriod.end</p>
            </td>
         </tr>
         <tr>
            <td>Immunization.Immunization.occurrenceDateTime</td>
            <td>
               <p>Immunization.occurrenceDateTime</p>
            </td>
         </tr>
         <tr>
            <td>Immunization.Immunization.occurrenceString</td>
            <td>
               <p>Immunization.occurrenceString</p>
            </td>
         </tr>
         <tr>
            <th>Prior Concomitant Meds</th>
            <td>
               <span>CMPRIOR</span>
            </td>
            <td>
               <span title="This does not map directly to an SDTMIG variable.  This information could be submitted in a SUPPCM dataset as the value of SUPPCM.QVAL where SUPPCM.QNAM= &#34;CMATC1&#34; and SUPPCM.QLABEL=&#34;ATC Level 1 Description&#34;.  Sponsors should include an Origin column in the SUPPQ dataset to indicate that the data was &#34;ASSIGNED&#34;. ">CMSTRF</span>
               <span title="This does not map directly to an SDTMIG variable.  This information could be submitted in a SUPPCM dataset as the value of SUPPCM.QVAL where SUPPCM.QNAM= &#34;CMATC1&#34; and SUPPCM.QLABEL=&#34;ATC Level 1 Description&#34;.  Sponsors should include an Origin column in the SUPPQ dataset to indicate that the data was &#34;ASSIGNED&#34;. ">CMSTRTPT</span>
            </td>
            <td colspan="2" style="background-color:LightGray">This would need to be an extension added to the study extension on the medication resource - normally it is not captured except in the context of a study (and would be a study-specific assertion)</td>
            <td/>
         </tr>
         <tr>
            <th>Ongoing Concomitant Meds</th>
            <td>
               <span>CMONGO</span>
            </td>
            <td>
               <span title="This does not map directly to an SDTMIG variable.  This information could be submitted in a SUPPCM dataset as the value of SUPPCM.QVAL where SUPPCM.QNAM= &#34;CMATC1&#34; and SUPPCM.QLABEL=&#34;ATC Level 1 Description&#34;.  Sponsors should include an Origin column in the SUPPQ dataset to indicate that the data was &#34;ASSIGNED&#34;. ">CMENRF</span>
               <span title="This does not map directly to an SDTMIG variable.  This information could be submitted in a SUPPCM dataset as the value of SUPPCM.QVAL where SUPPCM.QNAM= &#34;CMATC1&#34; and SUPPCM.QLABEL=&#34;ATC Level 1 Description&#34;.  Sponsors should include an Origin column in the SUPPQ dataset to indicate that the data was &#34;ASSIGNED&#34;. ">CMENRTPT</span>
            </td>
            <td colspan="2" style="background-color:LightGray">This would need to be an extension added to the study extension on the medication resource - normally it is not captured except in the context of a study (and would be a study-specific assertion)</td>
            <td/>
         </tr>
         <tr>
            <th rowspan="9">Standardized Medication Name</th>
            <td rowspan="9">
               <span>CMDECOD</span>
            </td>
            <td rowspan="9">
               <span title="The corresponding CDASH Variable(s) map directly to identified SDTM Variable(s).">CMDECOD</span>
            </td>
            <td>MedicationStatement.MedicationStatement.medicationCodeableConcept</td>
            <td>
               <p>MedicationStatement.medicationCodeableConcept</p>
               <p>MedicationStatement.medicationReference.resolve().code</p>
            </td>
            <td rowspan="9">We would not expect to receive these from the site.</td>
         </tr>
         <tr>
            <td>Medication.Medication.code</td>
            <td>
               <p>MedicationStatement.medicationCodeableConcept</p>
               <p>MedicationStatement.medicationReference.resolve().code</p>
            </td>
         </tr>
         <tr>
            <td>MedicationRequest.MedicationRequest.medicationCodeableConcept</td>
            <td>
               <p>MedicationRequest.medicationCodeableConcept</p>
               <p>MedicationRequest.medicationReference.resolve().code</p>
            </td>
         </tr>
         <tr>
            <td>Medication.Medication.code</td>
            <td>
               <p>MedicationRequest.medicationCodeableConcept</p>
               <p>MedicationRequest.medicationReference.resolve().code</p>
            </td>
         </tr>
         <tr>
            <td>MedicationDispense.MedicationDispense.medicationCodeableConcept</td>
            <td>
               <p>MedicationDispense.medicationCodeableConcept</p>
               <p>MedicationDispense.medicationReference.resolve().code</p>
            </td>
         </tr>
         <tr>
            <td>Medication.Medication.code</td>
            <td>
               <p>MedicationDispense.medicationCodeableConcept</p>
               <p>MedicationDispense.medicationReference.resolve().code</p>
            </td>
         </tr>
         <tr>
            <td>MedicationAdministration.MedicationAdministration.medicationCodeableConcept</td>
            <td>
               <p>MedicationAdministration.medicationCodeableConcept</p>
               <p>MedicationAdministration.medicationReference.resolve().code</p>
            </td>
         </tr>
         <tr>
            <td>Medication.Medication.code</td>
            <td>
               <p>MedicationAdministration.medicationCodeableConcept</p>
               <p>MedicationAdministration.medicationReference.resolve().code</p>
            </td>
         </tr>
         <tr>
            <td>Immunization.Immunization.vaccineCode</td>
            <td>
               <p>Immunization.vaccineCode</p>
            </td>
         </tr>
         <tr>
            <th rowspan="9">CM Medication Class</th>
            <td rowspan="9">
               <span>CMCLAS</span>
            </td>
            <td rowspan="9">
               <span title="The corresponding CDASH Variable(s) map directly to identified SDTM Variable(s).">CMCLAS</span>
            </td>
            <td>MedicationStatement.MedicationStatement.medicationCodeableConcept</td>
            <td>
               <p>MedicationStatement.medicationCodeableConcept</p>
               <p>MedicationStatement.medicationReference.resolve().code</p>
            </td>
            <td rowspan="9">These *can* be provided as alternate codings, however typically encoding is performed by the sponsor and we would not expect to receive these from the site.</td>
         </tr>
         <tr>
            <td>Medication.Medication.code</td>
            <td>
               <p>MedicationStatement.medicationCodeableConcept</p>
               <p>MedicationStatement.medicationReference.resolve().code</p>
            </td>
         </tr>
         <tr>
            <td>MedicationRequest.MedicationRequest.medicationCodeableConcept</td>
            <td>
               <p>MedicationRequest.medicationCodeableConcept</p>
               <p>MedicationRequest.medicationReference.resolve().code</p>
            </td>
         </tr>
         <tr>
            <td>Medication.Medication.code</td>
            <td>
               <p>MedicationRequest.medicationCodeableConcept</p>
               <p>MedicationRequest.medicationReference.resolve().code</p>
            </td>
         </tr>
         <tr>
            <td>MedicationDispense.MedicationDispense.medicationCodeableConcept</td>
            <td>
               <p>MedicationDispense.medicationCodeableConcept</p>
               <p>MedicationDispense.medicationReference.resolve().code</p>
            </td>
         </tr>
         <tr>
            <td>Medication.Medication.code</td>
            <td>
               <p>MedicationDispense.medicationCodeableConcept</p>
               <p>MedicationDispense.medicationReference.resolve().code</p>
            </td>
         </tr>
         <tr>
            <td>MedicationAdministration.MedicationAdministration.medicationCodeableConcept</td>
            <td>
               <p>MedicationAdministration.medicationCodeableConcept</p>
               <p>MedicationAdministration.medicationReference.resolve().code</p>
            </td>
         </tr>
         <tr>
            <td>Medication.Medication.code</td>
            <td>
               <p>MedicationAdministration.medicationCodeableConcept</p>
               <p>MedicationAdministration.medicationReference.resolve().code</p>
            </td>
         </tr>
         <tr>
            <td>Immunization.Immunization.vaccineCode</td>
            <td>
               <p>Immunization.vaccineCode</p>
            </td>
         </tr>
         <tr>
            <th rowspan="9">CM Medication Class Code</th>
            <td rowspan="9">
               <span>CMCLASCD</span>
            </td>
            <td rowspan="9">
               <span title="The corresponding CDASH Variable(s) map directly to identified SDTM Variable(s).">CMCLASCD</span>
            </td>
            <td>MedicationStatement.MedicationStatement.medicationCodeableConcept</td>
            <td>
               <p>MedicationStatement.medicationCodeableConcept</p>
               <p>MedicationStatement.medicationReference.resolve().code</p>
            </td>
            <td rowspan="9">These *can* be provided as alternate codings, however typically encoding is performed by the sponsor and we would not expect to receive these from the site.</td>
         </tr>
         <tr>
            <td>Medication.Medication.code</td>
            <td>
               <p>MedicationStatement.medicationCodeableConcept</p>
               <p>MedicationStatement.medicationReference.resolve().code</p>
            </td>
         </tr>
         <tr>
            <td>MedicationRequest.MedicationRequest.medicationCodeableConcept</td>
            <td>
               <p>MedicationRequest.medicationCodeableConcept</p>
               <p>MedicationRequest.medicationReference.resolve().code</p>
            </td>
         </tr>
         <tr>
            <td>Medication.Medication.code</td>
            <td>
               <p>MedicationRequest.medicationCodeableConcept</p>
               <p>MedicationRequest.medicationReference.resolve().code</p>
            </td>
         </tr>
         <tr>
            <td>MedicationDispense.MedicationDispense.medicationCodeableConcept</td>
            <td>
               <p>MedicationDispense.medicationCodeableConcept</p>
               <p>MedicationDispense.medicationReference.resolve().code</p>
            </td>
         </tr>
         <tr>
            <td>Medication.Medication.code</td>
            <td>
               <p>MedicationDispense.medicationCodeableConcept</p>
               <p>MedicationDispense.medicationReference.resolve().code</p>
            </td>
         </tr>
         <tr>
            <td>MedicationAdministration.MedicationAdministration.medicationCodeableConcept</td>
            <td>
               <p>MedicationAdministration.medicationCodeableConcept</p>
               <p>MedicationAdministration.medicationReference.resolve().code</p>
            </td>
         </tr>
         <tr>
            <td>Medication.Medication.code</td>
            <td>
               <p>MedicationAdministration.medicationCodeableConcept</p>
               <p>MedicationAdministration.medicationReference.resolve().code</p>
            </td>
         </tr>
         <tr>
            <td>Immunization.Immunization.vaccineCode</td>
            <td>
               <p>Immunization.vaccineCode</p>
            </td>
         </tr>
         <tr>
            <th>ATC Level 1 Description</th>
            <td>
               <span>CMATC1</span>
            </td>
            <td>
               <span title="This does not map directly to an SDTMIG variable.  This information could be submitted in a SUPPCM dataset as the value of SUPPCM.QVAL where SUPPCM.QNAM= &#34;CMATC1&#34; and SUPPCM.QLABEL=&#34;ATC Level 1 Description&#34;.  Sponsors should include an Origin column in the SUPPQ dataset to indicate that the data was &#34;ASSIGNED&#34;. ">SUPPCM.QVAL</span>
            </td>
            <td colspan="2" style="background-color:LightGray">Encoding is performed by the sponsor and we would not expect to receive these from the site.</td>
            <td/>
         </tr>
         <tr>
            <th>ATC Level 1 Code</th>
            <td>
               <span>CMATC1CD</span>
            </td>
            <td>
               <span title="This does not map directly to an SDTMIG variable.  This information could be submitted in a SUPPCM dataset as the value of SUPPCM.QVAL where SUPPCM.QNAM= &#34;MATC1CD&#34; and SUPPCM.QLABEL=&#34;ATC Level 1 Code&#34;.  Sponsors should include an Origin column in the SUPPQ dataset to indicate that the data was &#34;ASSIGNED&#34;. ">SUPPCM.QVAL</span>
            </td>
            <td colspan="2" style="background-color:LightGray">Encoding is performed by the sponsor and we would not expect to receive these from the site.<br/>
               <br/>
All coding levels are found in the same attribute as distinct codings.  The granularity is distinguished by the code system or knowledge of the code</td>
            <td/>
         </tr>
         <tr>
            <th>ATC Level 2 Description</th>
            <td>
               <span>CMATC2</span>
            </td>
            <td>
               <span title="This does not map directly to an SDTMIG variable.  This information could be submitted in a SUPPCM dataset as the value of SUPPCM.QVAL where SUPPCM.QNAM= &#34;CMATC2&#34; and SUPPCM.QLABEL=&#34;ATC Level 2 Description&#34;.  Sponsors should include an Origin column in the SUPPQ dataset to indicate that the data was &#34;ASSIGNED&#34;. ">SUPPCM.QVAL</span>
            </td>
            <td colspan="2" style="background-color:LightGray">Encoding is performed by the sponsor and we would not expect to receive these from the site.</td>
            <td/>
         </tr>
         <tr>
            <th>ATC Level 2 Code</th>
            <td>
               <span>CMATC2CD</span>
            </td>
            <td>
               <span title="This does not map directly to an SDTMIG variable.  This information could be submitted in a SUPPCM dataset as the value of SUPPCM.QVAL where SUPPCM.QNAM= &#34;MATC2CD&#34; and SUPPCM.QLABEL=&#34;ATC Level 2 Code&#34;.  Sponsors should include an Origin column in the SUPPQ dataset to indicate that the data was &#34;ASSIGNED&#34;. ">SUPPCM.QVAL</span>
            </td>
            <td colspan="2" style="background-color:LightGray">Encoding is performed by the sponsor and we would not expect to receive these from the site.<br/>
               <br/>All coding levels are found in the same attribute as distinct codings.  The granularity is distinguished by the code system or knowledge of the code</td>
            <td/>
         </tr>
         <tr>
            <th>ATC Level 3 Description</th>
            <td>
               <span>CMATC3</span>
            </td>
            <td>
               <span title="This does not map directly to an SDTMIG variable.  This information could be submitted in a SUPPCM dataset as the value of SUPPCM.QVAL where SUPPCM.QNAM= &#34;CMATC3&#34; and SUPPCM.QLABEL=&#34;ATC Level 3 Description&#34;.  Sponsors should include an Origin column in the SUPPQ dataset to indicate that the data was &#34;ASSIGNED&#34;. ">SUPPCM.QVAL</span>
            </td>
            <td colspan="2" style="background-color:LightGray">Encoding is performed by the sponsor and we would not expect to receive these from the site.</td>
            <td/>
         </tr>
         <tr>
            <th>ATC Level 3 Code</th>
            <td>
               <span>CMATC3CD</span>
            </td>
            <td>
               <span title="This does not map directly to an SDTMIG variable.  This information could be submitted in a SUPPCM dataset as the value of SUPPCM.QVAL where SUPPCM.QNAM= &#34;MATC3CD&#34; and SUPPCM.QLABEL=&#34;ATC Level 3 Code&#34;.  Sponsors should include an Origin column in the SUPPQ dataset to indicate that the data was &#34;ASSIGNED&#34;. ">SUPPCM.QVAL</span>
            </td>
            <td colspan="2" style="background-color:LightGray">Encoding is performed by the sponsor and we would not expect to receive these from the site.<br/>
               <br/>All coding levels are found in the same attribute as distinct codings.  The granularity is distinguished by the code system or knowledge of the code</td>
            <td/>
         </tr>
         <tr>
            <th>ATC Level 4 Description</th>
            <td>
               <span>CMATC4</span>
            </td>
            <td>
               <span title="This does not map directly to an SDTMIG variable.  This information could be submitted in a SUPPCM dataset as the value of SUPPCM.QVAL where SUPPCM.QNAM= &#34;CMATC4&#34; and SUPPCM.QLABEL=&#34;ATC Level 4 Description&#34;.  Sponsors should include an Origin column in the SUPPQ dataset to indicate that the data was &#34;ASSIGNED&#34;. ">SUPPCM.QVAL</span>
            </td>
            <td colspan="2" style="background-color:LightGray">Encoding is performed by the sponsor and we would not expect to receive these from the site.</td>
            <td/>
         </tr>
         <tr>
            <th>ATC Level 4 Code</th>
            <td>
               <span>CMATC4CD</span>
            </td>
            <td>
               <span title="This does not map directly to an SDTMIG variable.  This information could be submitted in a SUPPCM dataset as the value of SUPPCM.QVAL where SUPPCM.QNAM= &#34;MATC4CD&#34; and SUPPCM.QLABEL=&#34;ATC Level 4 Code&#34;.  Sponsors should include an Origin column in the SUPPQ dataset to indicate that the data was &#34;ASSIGNED&#34;. ">SUPPCM.QVAL</span>
            </td>
            <td colspan="2" style="background-color:LightGray">Encoding is performed by the sponsor and we would not expect to receive these from the site.<br/>
               <br/>
All coding levels are found in the same attribute as distinct codings.  The granularity is distinguished by the code system or knowledge of the code</td>
            <td/>
         </tr>
         <tr>
            <th>ATC Level 5 Description</th>
            <td>
               <span>CMATC5</span>
            </td>
            <td>
               <span title="This does not map directly to an SDTMIG variable.  This information could be submitted in a SUPPCM dataset as the value of SUPPCM.QVAL where SUPPCM.QNAM= &#34;CMATC5&#34; and SUPPCM.QLABEL=&#34;ATC Level 5 Description&#34;.  Sponsors should include an Origin column in the SUPPQ dataset to indicate that the data was &#34;ASSIGNED&#34;. ">SUPPCM.QVAL</span>
            </td>
            <td colspan="2" style="background-color:LightGray">Encoding is performed by the sponsor and we would not expect to receive these from the site.</td>
            <td/>
         </tr>
         <tr>
            <th>ATC Level 5 Code</th>
            <td>
               <span>CMATC5CD</span>
            </td>
            <td>
               <span title="This does not map directly to an SDTMIG variable.  This information could be submitted in a SUPPCM dataset as the value of SUPPCM.QVAL where SUPPCM.QNAM= &#34;MATC5CD&#34; and SUPPCM.QLABEL=&#34;ATC Level 5 Code&#34;.  Sponsors should include an Origin column in the SUPPQ dataset to indicate that the data was &#34;ASSIGNED&#34;. ">SUPPCM.QVAL</span>
            </td>
            <td colspan="2" style="background-color:LightGray">Encoding is performed by the sponsor and we would not expect to receive these from the site.<br/>
               <br/>
All coding levels are found in the same attribute as distinct codings.  The granularity is distinguished by the code system or knowledge of the code</td>
            <td/>
         </tr>
      </tbody>
   </table>
</div>
