<div xmlns:xs="http://www.w3.org/2001/XMLSchema"
     xmlns:fn="http://www.w3.org/2005/xpath-functions">
   <p>
        Guidance on interpreting the table can be found <a href="overview.html#mappings">here</a>.
      </p>
   <table class="grid"
          style="width:150%;word-break:break-word;table-layout:fixed;">
      <col style="width:15%"/>
      <col style="width:7.5%"/>
      <col style="width:7.5%"/>
      <col style="width:15%;"/>
      <col style="width:20%;"/>
      <col style="width:35%;"/>
      <thead style="background-color:PowderBlue;">
         <tr>
            <th colspan="3" style="text-align:center;">CDISC</th>
            <th colspan="2" style="text-align:center;">FHIR map (or gap)</th>
            <th rowspan="2" style="vertical-align:bottom;text-align:center;">Comment</th>
         </tr>
         <tr style="text-align:center;">
            <th style="text-align:center;">Name</th>
            <th style="text-align:center;">CDASH</th>
            <th style="text-align:center;">SDTM</th>
            <th style="text-align:center;">Element</th>
            <th style="text-align:center;">FHIRPath</th>
         </tr>
      </thead>
      <tbody>
         <tr>
            <th>Study Identifier</th>
            <td>
               <span>STUDYID</span>
            </td>
            <td>
               <span title="The corresponding CDASH Variable(s) map directly to identified SDTM Variable(s). I the column with the heading SDTMIG Target.">STUDYID</span>
            </td>
            <td>ResearchStudy.identifier</td>
            <td>
               <p>ResearchSubject.where(subject=Patient.identifier).study.resolve().partOf.resolve().identifier</p>
            </td>
            <td/>
         </tr>
         <tr>
            <th>Study Site Identifier</th>
            <td>
               <span>SITEID</span>
            </td>
            <td>
               <span title="The corresponding CDASH Variable(s) map directly to identified SDTM Variable(s). I the column with the heading SDTMIG Target.">DM.SITEID</span>
            </td>
            <td>ResearchStudy.identifier</td>
            <td>
               <p>ResearchSubject.where(subject=Patient.identifier.study.resolve().identifier.value</p>
            </td>
            <td/>
         </tr>
         <tr>
            <th>Subject Identifier for the Study</th>
            <td>
               <span>SUBJID</span>
            </td>
            <td>
               <span title="The corresponding CDASH Variable(s) map directly to identified SDTM Variable(s). I the column with the heading SDTMIG Target.">DM.SUBJID</span>
            </td>
            <td>ResearchSubject.identifier</td>
            <td>
               <p>ResearchSubject.where(individual=Patient.identifier).identifier.value</p>
            </td>
            <td/>
         </tr>
         <tr>
            <th>Birth Date</th>
            <td>
               <span>BRTHDAT</span>
            </td>
            <td>
               <span title="This does not map directly to an SDTMIG variable.  For the SDTM submission data set, concatenate all collected CDASH DATE and TIME components and populate the SDTMIG variable BRTHDTC in ISO 860 format.">BRTHDTC</span>
            </td>
            <td>Patient.birthDate</td>
            <td>
               <p>Patient.birthDate</p>
            </td>
            <td>There is potential where the birth date can not be collected due to country regulations.  In those cases an estimated age may be entered.<br/>
               <br/>Birth time is captured as a standard extension</td>
         </tr>
         <tr>
            <th>Birth Day</th>
            <td>
               <span>BRTHDD</span>
            </td>
            <td>
               <span title="This does not map directly to an SDTMIG variable.  For the SDTM submission data set, concatenate all collected CDASH DATE and TIME components and populate the SDTMIG variable BRTHDTC in ISO 860 format.">BRTHDTC</span>
            </td>
            <td>Patient.birthDate</td>
            <td>
               <p>Patient.birthDate.substring(8,4)</p>
            </td>
            <td/>
         </tr>
         <tr>
            <th>Birth Month</th>
            <td>
               <span>BRTHMO</span>
            </td>
            <td>
               <span title="This does not map directly to an SDTMIG variable.  For the SDTM submission data set, concatenate all collected CDASH DATE and TIME components and populate the SDTMIG variable BRTHDTC in ISO 860 format.">BRTHDTC</span>
            </td>
            <td>Patient.birthDate</td>
            <td>
               <p>Patient.birthDate.substring(5,2)</p>
            </td>
            <td/>
         </tr>
         <tr>
            <th>Birth Year</th>
            <td>
               <span>BRTHYY</span>
            </td>
            <td>
               <span title="This does not map directly to an SDTMIG variable.  For the SDTM submission data set, concatenate all collected CDASH DATE and TIME components and populate the SDTMIG variable BRTHDTC in ISO 860 format.">BRTHDTC</span>
            </td>
            <td>Patient.birthDate</td>
            <td>
               <p>Patient.birthDate.substring(0,4)</p>
            </td>
            <td/>
         </tr>
         <tr>
            <th>Birth Time</th>
            <td>
               <span>BRTHTIM</span>
            </td>
            <td>
               <span title="This does not map directly to an SDTMIG variable.  For the SDTM submission data set, concatenate all collected CDASH DATE and TIME components and populate the SDTMIG variable BRTHDTC in ISO 860 format.">BRTHDTC</span>
            </td>
            <td>Patient.extension</td>
            <td>
               <p>Patient.extension(patient-birthTime).valueTime</p>
            </td>
            <td/>
         </tr>
         <tr>
            <th>Age</th>
            <td>
               <span>AGE</span>
            </td>
            <td>
               <span title="The corresponding CDASH Variable(s) map directly to identified SDTM Variable(s).">AGE</span>
            </td>
            <td colspan="2" style="background-color:LightGray">There is potential where the birth date can not be collected due to country regulations.<br/>
               <br/>Age can be captured as an Observation as a point-in-time assessment, but generally this is simply calculated from birthDate</td>
            <td/>
         </tr>
         <tr>
            <th>Age Units</th>
            <td>
               <span>AGEU</span>
            </td>
            <td>
               <span title="The corresponding CDASH Variable(s) map directly to identified SDTM Variable(s).">AGEU</span>
            </td>
            <td colspan="2" style="background-color:LightGray">Age can be captured as an Observation as a point-in-time assessment, but generally this is simply calculated from birthDate</td>
            <td/>
         </tr>
         <tr>
            <th>Demographics Collection Date</th>
            <td>
               <span>DMDAT</span>
            </td>
            <td>
               <span title="This does not map directly to an SDTMIG variable.  For the SDTM submission data set, concatenate all collected CDASH DATE and TIME components and populate the SDTMIG variable BRTHDTC in ISO 860 format.">DMDTC</span>
            </td>
            <td>Patient.meta</td>
            <td>
               <p>Patient.meta.lastUpdated</p>
            </td>
            <td> <br/>
               <br/>This indicates when the Patient resource was last changed, but in practice different pieces of demographics are collected at different times.  Review will be required of the history of the patient resource to determine when any particular fact was first asserted.</td>
         </tr>
         <tr>
            <th>Sex</th>
            <td>
               <span>SEX</span>
            </td>
            <td>
               <span title="The corresponding CDASH Variable(s) map directly to identified SDTM Variable(s).">SEX</span>
            </td>
            <td>Patient.gender</td>
            <td>
               <p>Patient.gender</p>
            </td>
            <td>Note that gender represents the gender for administrative purposes.  Genetic, physiologic, social and other gender aspects are captured as Observations</td>
         </tr>
         <tr>
            <th>Ethnicity</th>
            <td>
               <span>ETHNIC</span>
            </td>
            <td>
               <span title="The corresponding CDASH Variable(s) map directly to identified SDTM Variable(s).">ETHNIC</span>
            </td>
            <td colspan="2" style="background-color:LightGray">There's a U.S. Core extension (https://build.fhir.org/ig/HL7/US-Core-R4/StructureDefinition-us-core-ethnicity.html) for this to capture ethnicity as required by U.S. legislation.  It captures two distinct granularities as well as free text.  Depending on the study, the higher or lower granularity might map to ETHNIC and the lower or free text could map to CETHNIC.  Other countries use vastly different value sets or prohibit collection.  If captured for clinical rather than administrative purposes, this would be an Observation</td>
            <td/>
         </tr>
         <tr>
            <th>Collected Ethnicity</th>
            <td>
               <span>CETHNIC</span>
            </td>
            <td>
               <span title="This does not map directly to an SDTMIG variable.  This information could be submitted in a SUPPDM dataset as the value of SUPPDM.QVAL where SUPPDM.QNAM = &#34;CETHIC&#34; and SUPPDM.QLABEL = &#34;Collected Ethnicity&#34; See SDTMIG v3.2 Section 5, DM Domain.  Refer to the current SDTM and SDTMIG for instructions on placement of non-standard variables in SDTM domains.">SUPPDM.QVAL</span>
            </td>
            <td colspan="2" style="background-color:LightGray">There's a U.S. Core extension (https://build.fhir.org/ig/HL7/US-Core-R4/StructureDefinition-us-core-ethnicity.html) for this to capture ethnicity as required by U.S. legislation.  It captures two distinct granularities as well as free text.  Depending on the study, the higher or lower granularity might map to ETHNIC and the lower or free text could map to CETHNIC.  Other countries use vastly different value sets or prohibit collection.  If captured for clinical rather than administrative purposes, this would be an Observation</td>
            <td/>
         </tr>
         <tr>
            <th>Race</th>
            <td>
               <span>RACE</span>
            </td>
            <td>
               <span title="The corresponding CDASH Variable(s) map directly to identified SDTM Variable(s).">RACE</span>
            </td>
            <td colspan="2" style="background-color:LightGray">There's a U.S. Core extension (https://build.fhir.org/ig/HL7/US-Core-R4/StructureDefinition-us-core-race.html) for this to capture race as required by U.S. legislation.  In theory, the OMBRace could map to RACE, 'detailed' could map to CRACE and 'text' could map to RACEOTH.  However, how appropriate these mappings would be would depend on the study requirements.<br/>
               <br/>Other countries use vastly different value sets or prohibit collection.  If captured for clinical rather than administrative purposes, this would be an Observation</td>
            <td/>
         </tr>
         <tr>
            <th>Collected Race</th>
            <td>
               <span>CRACE</span>
            </td>
            <td>
               <span title="This does not map directly to an SDTMIG variable.  This information could be submitted in a SUPPDM dataset as the value of SUPPDM.QVAL where SUPPDM.QNAM = &#34;CRACE&#34; and SUPPDM.QLABEL = &#34;Collected Race&#34; See SDTMIG v3.2 Section 5, DM Domain.  Refer to the current SDTM and SDTMIG for instructions on placement of non-standard variables in SDTM domains.">SUPPDM.QVAL</span>
            </td>
            <td colspan="2" style="background-color:LightGray">There's a U.S. Core extension (https://build.fhir.org/ig/HL7/US-Core-R4/StructureDefinition-us-core-race.html) for this to capture race as required by U.S. legislation.  In theory, the OMBRace could map to RACE, 'detailed' could map to CRACE and 'text' could map to RACEOTH.  However, how appropriate these mappings would be would depend on the study requirements.<br/>
               <br/>Other countries use vastly different value sets or prohibit collection.  If captured for clinical rather than administrative purposes, this would be an Observation</td>
            <td/>
         </tr>
         <tr>
            <th>Race Other</th>
            <td>
               <span>RACEOTH</span>
            </td>
            <td>
               <span title="This does not map directly to an SDTMIG variable.  This information could be submitted in a SUPPDM dataset as the value of SUPPDM.QVAL where SUPPDM.QNAM = &#34;RACEOTHER&#34; and SUPPDM.QLABEL = &#34;RACE OTHER&#34; See SDTMIG v3.2 Section 5, DM Domain.  Refer to the current SDTM and SDTMIG for instructions on placement of non-standard variables in SDTM domains."/>
            </td>
            <td colspan="2" style="background-color:LightGray">There's a U.S. Core extension (https://build.fhir.org/ig/HL7/US-Core-R4/StructureDefinition-us-core-race.html) for this to capture race as required by U.S. legislation.  In theory, the OMBRace could map to RACE, 'detailed' could map to CRACE and 'text' could map to RACEOTH.  However, how appropriate these mappings would be would depend on the study requirements.<br/>
               <br/>Other countries use vastly different value sets or prohibit collection.  If captured for clinical rather than administrative purposes, this would be an Observation</td>
            <td/>
         </tr>
      </tbody>
   </table>
</div>
