<div>
   <p>
        Guidance on interpreting the tables can be found <a href="overview.html#mappings">here</a>.
      </p>
   <div id="tabs">
      <ul>
         <li>
            <a href="#lookup">CDISC Lookup view</a>
         </li>
         <li>
            <a href="#mapping">FHIR mapping view</a>
         </li>
      </ul>
      <div id="lookup">
         <table class="grid"
                style="width:150%;word-break:break-word;table-layout:fixed;">
            <col style="width:15%"/>
            <col style="width:7.5%"/>
            <col style="width:7.5%"/>
            <col style="width:15%;"/>
            <col style="width:20%;"/>
            <col style="width:35%;"/>
            <thead style="background-color:PowderBlue;">
               <tr>
                  <th colspan="3" style="text-align:center;">CDISC</th>
                  <th colspan="2" style="text-align:center;">FHIR map (or gap)</th>
                  <th rowspan="2" style="vertical-align:bottom;text-align:center;">Comment</th>
               </tr>
               <tr style="text-align:center;">
                  <th style="text-align:center;">Label</th>
                  <th style="text-align:center;">CDASH</th>
                  <th style="text-align:center;">SDTM</th>
                  <th style="text-align:center;">Element</th>
                  <th style="text-align:center;">FHIRPath</th>
               </tr>
            </thead>
            <tbody>
               <tr>
                  <th>Study Identifier</th>
                  <td>
                     <span style="font-weight:bold" title="A unique identifier for a study.">
                        <a href="https://library.cdisc.org/api/mdr/cdashig/2-1/domains/DM/fields/STUDYID">DM.STUDYID</a>
                     </span>
                     <br/>Core: HR<br/>Type: Char</td>
                  <td>
                     <span style="font-weight:bold" title="Unique identifier for a study.">
                        <a href="https://library.cdisc.org/api/mdr/sdtmig/3-2/datasets/DM/variables/STUDYID">DM.STUDYID</a>
                     </span>
                     <br/>Core: Req<br/>Type: Char</td>
                  <td>
                     <span title="Identifiers assigned to this research study by the sponsor or other systems.">
                        <a style="font-weight:bold"
                           href="{{site.data.fhir.path}}researchstudy-definitions.html#ResearchStudy.identifier">ResearchStudy.identifier</a>
                     </span>
                     <br/>0..* <a href="{{site.data.fhir.path}}datatypes.html#Identifier">Identifier</a>
                  </td>
                  <td>
                     <p>ResearchSubject.where(subject=Observation.subject).study.resolve().partOf.resolve().identifier.value</p>
                     <p>Observation.extension(workflow-researchstudy).valueReference.resolve().partOf.resolve().identifier.value</p>
                  </td>
                  <td>Mapping is based on presumption that research subject will be tied to site-specific ResearchStudy, which will then be part of overall ResearchStudy.<br/>
                     <br/>The path using the extension will only exist if the system maintaining the Observation is aware of its relevance to the Study.   ResearchStudy links to Patient. Observation links to Patient. If the patients are the same, that establishes the linkage. There's also an extension that allows direct linkage to a 'study' from any resource - if the source system has actually established such a linkage.</td>
               </tr>
               <tr>
                  <th>Study Site Identifier</th>
                  <td>
                     <span style="font-weight:bold"
                           title="A unique identifier for a site within a study.">
                        <a href="https://library.cdisc.org/api/mdr/cdashig/2-1/domains/DM/fields/SITEID">DM.SITEID</a>
                     </span>
                     <br/>Core: HR<br/>Type: Char</td>
                  <td>
                     <span style="font-weight:bold"
                           title="Unique identifier for a site within a study.">
                        <a href="https://library.cdisc.org/api/mdr/sdtmig/3-2/datasets/DM/variables/SITEID">DM.SITEID</a>
                     </span>
                     <br/>Core: Req<br/>Type: Char</td>
                  <td>
                     <span title="Identifiers assigned to this research study by the sponsor or other systems.">
                        <a style="font-weight:bold"
                           href="{{site.data.fhir.path}}researchstudy-definitions.html#ResearchStudy.identifier">ResearchStudy.identifier</a>
                     </span>
                     <br/>0..* <a href="{{site.data.fhir.path}}datatypes.html#Identifier">Identifier</a>
                  </td>
                  <td>
                     <p>ResearchSubject.where(subject=Observation.subject).study.resolve().identifier.value</p>
                     <p>Observation.extension(workflow-researchstudy).valueReference.resolve().identifier.value</p>
                  </td>
                  <td>Mapping is based on presumption that research subject will be tied to site-specific ResearchStudy, which will then be part of overall ResearchStudy.<br/>
                     <br/>The path using the extension will only exist if the system maintaining the Observation is aware of its relevance to the Study.    ResearchStudy links to Patient. Observation links to Patient. If the patients are the same, that establishes the linkage. There's also an extension that allows direct linkage to a 'study' from any resource - if the source system has actually established such a linkage.</td>
               </tr>
               <tr>
                  <th>Investigator Identifier</th>
                  <td/>
                  <td>
                     <span style="font-weight:bold"
                           title="An identifier to describe the Investigator for the study. May be used in addition to SITEID. Not needed if SITEID is equivalent to INVID.">
                        <a href="https://library.cdisc.org/api/mdr/sdtmig/3-2/datasets/DM/variables/INVID">DM.INVID</a>
                     </span>
                     <br/>Core: Perm<br/>Type: Char</td>
                  <td>
                     <span title="An identifier that applies to this person in this role.">
                        <a style="font-weight:bold"
                           href="{{site.data.fhir.path}}practitioner-definitions.html#Practitioner.identifier">Practitioner.identifier</a>
                     </span>
                     <br/>0..* <a href="{{site.data.fhir.path}}datatypes.html#Identifier">Identifier</a>
                  </td>
                  <td>
                     <p>ResearchSubject.where(subject=Observation.subject).study.resolve().principleInvestigator.resolve().identifier.value</p>
                     <p>Observation.extension(workflow-researchstudy).valueReference.resolve().principleInvestigator.resolve().identifier.value</p>
                  </td>
                  <td>Will need to decide which id to expose.  If you want the PI for the overall study rather than just for the site associated with the Observation, you'll need to traverse the partOf.resolve() from the study-specific ResearchStudy.<br/>
                     <br/>The path using the extension will only exist if the system maintaining the Observation is aware of its relevance to the Study.</td>
               </tr>
               <tr>
                  <th>Subject Identifier for the Study</th>
                  <td>
                     <span style="font-weight:bold"
                           title="A unique subject identifier within a site and a study.">
                        <a href="https://library.cdisc.org/api/mdr/cdashig/2-1/domains/DM/fields/SUBJID">DM.SUBJID</a>
                     </span>
                     <br/>Core: HR<br/>Type: Char</td>
                  <td>
                     <span style="font-weight:bold"
                           title="Subject identifier, which must be unique within the study. Often the ID of the subject as recorded on a CRF.">
                        <a href="https://library.cdisc.org/api/mdr/sdtmig/3-2/datasets/DM/variables/SUBJID">DM.SUBJID</a>
                     </span>
                     <br/>Core: Req<br/>Type: Char</td>
                  <td>
                     <span title="Identifiers assigned to this research subject for a study.">
                        <a style="font-weight:bold"
                           href="{{site.data.fhir.path}}researchsubject-definitions.html#ResearchSubject.identifier">ResearchSubject.identifier</a>
                     </span>
                     <br/>0..* <a href="{{site.data.fhir.path}}datatypes.html#Identifier">Identifier</a>
                  </td>
                  <td>
                     <p>ResearchSubject.where(individual=Observation.subject).identifier.value</p>
                  </td>
                  <td>Study subject is found by finding the StudySubject that corresponds to the same Patient and ResearchStudy as the Observation.<br/>
                     <br/>No standard way to decide which subject identifier to use</td>
               </tr>
               <tr>
                  <th>Visit Number</th>
                  <td>
                     <span style="font-weight:bold">VISITNUM</span>
                  </td>
                  <td>
                     <span style="font-weight:bold"
                           title="1. Clinical encounter number. 2. Numeric version of VISIT, used for sorting.">
                        <a href="https://library.cdisc.org/api/mdr/sdtmig/3-2/datasets/LB/variables/VISITNUM">VISITNUM</a>
                     </span>
                     <br/>Core: Exp<br/>Type: Num</td>
                  <td>
                     <span title="Identifier(s) by which this encounter is known.">
                        <a style="font-weight:bold"
                           href="{{site.data.fhir.path}}encounter-definitions.html#Encounter.identifier">Encounter.identifier</a>
                     </span>
                     <br/>0..* <a href="{{site.data.fhir.path}}datatypes.html#Identifier">Identifier</a>
                  </td>
                  <td>
                     <p>Observation.encounter.resolve().identifier</p>
                  </td>
                  <td>This won't necessarily correlate with the protocol-defined visit number.  Correspondance to a protocol-defined visit will typically require rules-based analysis based on time, encounter type and other factors.</td>
               </tr>
               <tr>
                  <th>Visit Name</th>
                  <td>
                     <span style="font-weight:bold"
                           title="The name of a clinical encounter that encompasses planned and unplanned trial interventions, procedures, and assessments that may be performed on a subject.">
                        <a href="https://library.cdisc.org/api/mdr/cdashig/2-1/scenarios/LB.CentralProcessing/fields/VISIT">VISIT</a>
                     </span>
                     <br/>Core: R/C<br/>Type: Char</td>
                  <td>
                     <span style="font-weight:bold"
                           title="1. Protocol-defined description of clinical encounter 2. May be used in addition to VISITNUM and/or VISITDY">
                        <a href="https://library.cdisc.org/api/mdr/sdtmig/3-2/datasets/LB/variables/VISIT">VISIT</a>
                     </span>
                     <br/>Core: Perm<br/>Type: Char</td>
                  <td>
                     <span title="A natural language name identifying the activity definition. This name should be usable as an identifier for the module by machine processing applications such as code generation.">
                        <a style="font-weight:bold"
                           href="{{site.data.fhir.path}}activitydefinition-definitions.html#ActivityDefinition.name">ActivityDefinition.name</a>
                     </span>
                     <br/>0..1 <a href="{{site.data.fhir.path}}datatypes.html#string">string</a> inv-0</td>
                  <td>
                     <p>Observation.encounter.resolve().extension(workflow-instantiates).valueCanonical.resolve().title</p>
                  </td>
                  <td>In most cases, real world data won't have a direct association to a study protocol activity and the link would need to be inferred.  However, if it exists, it would map as follows:<br/>
                     <br/>We could go through Encounter.basedOn-&gt; ServiceRequest.instantiatesCanonical, you arrive at ActivityDefinition.   Encounter should have a standard instantiatesCanonical extension that would allow pointing to the ActivityDefinition.  This would be the ActivityDefinition.name.  Submit a change request to add the extension</td>
               </tr>
               <tr>
                  <th>Lab Specimen ID</th>
                  <td>
                     <span style="font-weight:bold"
                           title="An internal or external identifier such as specimen identifier.">
                        <a href="https://library.cdisc.org/api/mdr/cdashig/2-1/scenarios/LB.CentralProcessing/fields/LBREFID">LBREFID</a>
                     </span>
                     <br/>Core: R/C<br/>Type: Char</td>
                  <td>
                     <span style="font-weight:bold"
                           title="Internal or external specimen identifier. Example: Specimen ID.">
                        <a href="https://library.cdisc.org/api/mdr/sdtmig/3-2/datasets/LB/variables/LBREFID">LBREFID</a>
                     </span>
                     <br/>Core: Perm<br/>Type: Char</td>
                  <td>
                     <span title="The identifier assigned by the lab when accessioning specimen(s). This is not necessarily the same as the specimen identifier, depending on local lab procedures.">
                        <a style="font-weight:bold"
                           href="{{site.data.fhir.path}}specimen-definitions.html#Specimen.accessionIdentifier">Specimen.accessionIdentifier</a>
                     </span>
                     <br/>0..1 <a href="{{site.data.fhir.path}}datatypes.html#Identifier">Identifier</a>
                  </td>
                  <td>
                     <p>Observation.specimen.resolve().accessionIdentifier.value</p>
                  </td>
                  <td>As reported from the Site</td>
               </tr>
               <tr>
                  <th rowspan="2">Date/Time of Specimen Collection</th>
                  <td rowspan="2"/>
                  <td rowspan="2">
                     <span style="font-weight:bold">
                        <a href="https://library.cdisc.org/api/mdr/sdtmig/3-2/datasets/LB/variables/LBDTC">LBDTC</a>
                     </span>
                     <br/>Core: Exp<br/>Type: Char<br/>values: ISO 8601</td>
                  <td>
                     <span title="Time when specimen was collected from subject - the physiologically relevant time.">
                        <a style="font-weight:bold"
                           href="{{site.data.fhir.path}}specimen-definitions.html#Specimen.collection.collectedDateTime">Specimen.collection.collectedDateTime</a>
                     </span>
                     <br/>0..1 <a href="{{site.data.fhir.path}}datatypes.html#dateTime">dateTime</a>
                  </td>
                  <td>
                     <p>Observation.specimen.resolve().collection.collectedDateTime</p>
                  </td>
                  <td rowspan="2">NOTE: no mapping included for CDASH LBDAT and LBTIM
To map directly, the data must be formatted in ISO 8601 date/time format (e.g., 2015-02-07T13:28:17-05:00)</td>
               </tr>
               <tr>
                  <td>
                     <span title="Time when specimen was collected from subject - the physiologically relevant time.">
                        <a style="font-weight:bold"
                           href="{{site.data.fhir.path}}specimen-definitions.html#Specimen.collection.collectedPeriod">Specimen.collection.collectedPeriod</a>
                     </span>
                     <br/>0..1 <a href="{{site.data.fhir.path}}datatypes.html#Period">Period</a>
                  </td>
                  <td>
                     <p>Observation.specimen.resolve().collection.collectedPeriod.start</p>
                  </td>
               </tr>
               <tr>
                  <th>End Date/Time of Specimen Collection</th>
                  <td/>
                  <td>
                     <span style="font-weight:bold">
                        <a href="https://library.cdisc.org/api/mdr/sdtmig/3-2/datasets/LB/variables/LBENDTC">LBENDTC</a>
                     </span>
                     <br/>Core: Perm<br/>Type: Char<br/>values: ISO 8601</td>
                  <td>
                     <span title="Time when specimen was collected from subject - the physiologically relevant time.">
                        <a style="font-weight:bold"
                           href="{{site.data.fhir.path}}specimen-definitions.html#Specimen.collection.collectedPeriod">Specimen.collection.collectedPeriod</a>
                     </span>
                     <br/>0..1 <a href="{{site.data.fhir.path}}datatypes.html#Period">Period</a>
                  </td>
                  <td>
                     <p>Observation.specimen.resolve().collection.collectedPeriod.end</p>
                  </td>
                  <td>NOTE: No mapping included for CDASH LBENDAT and LBENTIM)<br/>
                     <br/>To map directly, the data must be formatted in ISO 8601 date/time format (e.g., 2015-02-07T13:28:17-05:00)</td>
               </tr>
               <tr>
                  <th>Specimen Collection Duration (for Clinical Research with extended time of collection)</th>
                  <td>
                     <span style="font-weight:bold">LBCDUR</span>
                  </td>
                  <td>
                     <span style="font-weight:bold">LBDUR*</span>
                  </td>
                  <td>
                     <span title="Time when specimen was collected from subject - the physiologically relevant time.">
                        <a style="font-weight:bold"
                           href="{{site.data.fhir.path}}specimen-definitions.html#Specimen.collection.collectedPeriod">Specimen.collection.collectedPeriod</a>
                     </span>
                     <br/>0..1 <a href="{{site.data.fhir.path}}datatypes.html#Period">Period</a>
                  </td>
                  <td>
                     <p>Observation.specimen.resolve().collection.collectedPeriod</p>
                  </td>
                  <td>Will need to convert value and unit to ISO syntax.  E.g. 90 min would convert to PT1H30M</td>
               </tr>
               <tr>
                  <th>Specimen Planned Time Point Name (Planned Collection Time Point - time within Encounter)</th>
                  <td>
                     <span style="font-weight:bold">LBCTPT</span>
                  </td>
                  <td>
                     <span style="font-weight:bold"
                           title="1. Text Description of time when specimen should be taken. 2. This may be represented as an elapsed time relative to a fixed reference point, such as time of last dose. See LBTPTNUM and LBTPTREF. Examples: Start, 5 min post.">
                        <a href="https://library.cdisc.org/api/mdr/sdtmig/3-2/datasets/LB/variables/LBTPT">LBTPT</a>
                     </span>
                     <br/>Core: Perm<br/>Type: Char</td>
                  <td>
                     <span title="May be used to represent additional information that is not part of the basic definition of the resource. To make the use of extensions safe and manageable, there is a strict set of governance  applied to the definition and use of extensions. Though any implementer can define an extension, there is a set of requirements that SHALL be met as part of the definition of the extension.">
                        <a style="font-weight:bold"
                           href="{{site.data.fhir.path}}specimen-definitions.html#Specimen.extension">Specimen.extension</a>
                     </span>
                     <br/>0..* <a href="{{site.data.fhir.path}}datatypes.html#Extension">Extension</a>
                  </td>
                  <td>
                     <p>Observation.specimen.resolve().extension(cqf-relativeDateTime).extension('reference').valueReference.reference.resolve().title</p>
                  </td>
                  <td>Typically named timepoints won't exist in real-world data and the timing point name will need to be assigned by the sponsor.  However, this shows where the data would be expressed in FHIR if it was present there.</td>
               </tr>
               <tr>
                  <th>Specimen Planned Elapsed Time from Time Point Reference</th>
                  <td>
                     <span style="font-weight:bold">LBCELTM</span>
                  </td>
                  <td>
                     <span style="font-weight:bold"
                           title="Planned Elapsed time (in ISO 8601) relative to a planned fixed reference (LBTPTREF). This variable is useful where there are repetitive measures. Not a clock time or a date time variable. Represented as an ISO 8601 duration. Examples: &#34;-PT15M&#34; to represent the period of 15 minutes prior to the reference point indicated by LBTPTREF, or &#34;PT8H&#34; to represent the period of 8 hours after the reference point indicated by LBTPTREF.">
                        <a href="https://library.cdisc.org/api/mdr/sdtmig/3-2/datasets/LB/variables/LBELTM">LBELTM</a>
                     </span>
                     <br/>Core: Perm<br/>Type: Char<br/>values: ISO 8601</td>
                  <td>
                     <span title="May be used to represent additional information that is not part of the basic definition of the resource. To make the use of extensions safe and manageable, there is a strict set of governance  applied to the definition and use of extensions. Though any implementer can define an extension, there is a set of requirements that SHALL be met as part of the definition of the extension.">
                        <a style="font-weight:bold"
                           href="{{site.data.fhir.path}}specimen-definitions.html#Specimen.extension">Specimen.extension</a>
                     </span>
                     <br/>0..* <a href="{{site.data.fhir.path}}datatypes.html#Extension">Extension</a>
                  </td>
                  <td>
                     <p>Observation.specimen.resolve().extension(cqf-relativeDateTime).extension('offset').valueDuration</p>
                  </td>
                  <td>Typically named timepoints won't exist in real-world data and the timing point offset will need to be calculated by the sponsor.  However, this shows where the data would be expressed in FHIR if it was present there.  If present, would need to translate to ISO-8601</td>
               </tr>
               <tr>
                  <th>Specimen Condition</th>
                  <td>
                     <span style="font-weight:bold">LBCSPCCN</span>
                  </td>
                  <td>
                     <span style="font-weight:bold"
                           title="Free or standardized text describing the condition of the specimen e.g. HEMOLYZED, ICTERIC, LIPEMIC etc.">
                        <a href="https://library.cdisc.org/api/mdr/sdtmig/3-2/datasets/LB/variables/LBSPCCND">LBSPCCND</a>
                     </span>
                     <br/>Core: Perm<br/>Type: Char</td>
                  <td>
                     <span title="A mode or state of being that describes the nature of the specimen.">
                        <a style="font-weight:bold"
                           href="{{site.data.fhir.path}}specimen-definitions.html#Specimen.condition">Specimen.condition</a>
                     </span>
                     <br/>0..* <a href="{{site.data.fhir.path}}datatypes.html#CodeableConcept">CodeableConcept</a>
                     <br/>Binding: <a href="http://terminology.hl7.org/ValueSet/v2-0493">SpecimenCondition</a> 
                     <a href="{{site.data.fhir.path}}terminologies.html#extensible">extensible</a>
                  </td>
                  <td>
                     <p>Observation.specimen.resolve().condition.coding.code</p>
                  </td>
                  <td>Recommend submitting change proposals to extend the FHIR vocabulary to include CDISC values.  Sponsor will need to decide how to map when FHIR terminology contains codes not present in CDISC.<br/>
                     <br/>NOTE: requires an extension to the FHIR vocabulary to include CDISC values (e.g., Refrigerated).  An "as collected" version of the SDTM variable is recommended to allow the sponsor to make adjustments to ensure terminology compliance while mapping to SDTM.</td>
               </tr>
               <tr>
                  <th>Specimen Type</th>
                  <td>
                     <span style="font-weight:bold">LBCSPEC</span>
                  </td>
                  <td>
                     <span style="font-weight:bold"
                           title="Defines the type of specimen used for a measurement. Examples: SERUM, PLASMA, URINE.">
                        <a href="https://library.cdisc.org/api/mdr/sdtmig/3-2/datasets/LB/variables/LBSPEC">LBSPEC</a>
                     </span>
                     <br/>Core: Perm<br/>Type: Char</td>
                  <td>
                     <span title="The kind of material that forms the specimen.">
                        <a style="font-weight:bold"
                           href="{{site.data.fhir.path}}specimen-definitions.html#Specimen.type">Specimen.type</a>
                     </span>
                     <br/>0..1 <a href="{{site.data.fhir.path}}datatypes.html#CodeableConcept">CodeableConcept</a>
                     <br/>Binding: <a href="http://terminology.hl7.org/ValueSet/v2-0487">SpecimenType</a> 
                     <a href="{{site.data.fhir.path}}terminologies.html#example">example</a>
                  </td>
                  <td>
                     <p>Observation.specimen.resolve().type.coding.display</p>
                  </td>
                  <td>NOTE: In some cases, this may be inferred from the LOINC.<br/>
                     <br/>FHIR terminology is not standardized.  Sponsor will need to map to CDISC terminology if raw data does not use CDISC codes.  An "as collected" version of the SDTM variable is recommended to allow the sponsor to make adjustments to ensure terminology compliance while mapping to SDTM.</td>
               </tr>
               <tr>
                  <th>Fasting Status</th>
                  <td>
                     <span style="font-weight:bold">LBCFAST</span>
                  </td>
                  <td>
                     <span style="font-weight:bold"
                           title="Indicator used to identify fasting status such as Y, N, U, or null if not relevant.">
                        <a href="https://library.cdisc.org/api/mdr/sdtmig/3-2/datasets/LB/variables/LBFAST">LBFAST</a>
                     </span>
                     <br/>Core: Perm<br/>Type: Char</td>
                  <td>
                     <span title="Abstinence or reduction from some or all food, drink, or both, for a period of time prior to sample collection.">
                        <a style="font-weight:bold"
                           href="{{site.data.fhir.path}}specimen-definitions.html#Specimen.collection.fastingStatusCodeableConcept">Specimen.collection.fastingStatusCodeableConcept</a>
                     </span>
                     <br/>0..1 <a href="{{site.data.fhir.path}}datatypes.html#CodeableConcept">CodeableConcept</a>
                     <br/>Binding: <a href="http://terminology.hl7.org/ValueSet/v2-0916">FastingStatus</a> 
                     <a href="{{site.data.fhir.path}}terminologies.html#extensible">extensible</a>
                  </td>
                  <td>
                     <p>Observation.specimen.resolve().collection.fastingStatusCodeableConcept.coding.code</p>
                  </td>
                  <td>CDISC to FHIR mapping as follows:
F -&gt; Y; NF -&gt; N; FNA -&gt; N/A; NG -&gt; Not Applicable.<br/>
                     <br/>If fastingStatusDuration is present and non-zero, that would also map to 'Y'.   In some cases, this may be inferred from the LOINC term (Challenge). For example, Challenge=post CFst to signify a calorie fast.</td>
               </tr>
               <tr>
                  <th>Lab Test Condition Met</th>
                  <td>
                     <span style="font-weight:bold"
                           title="Indication whether the testing condition defined in the protocol were met (e.g., Low fat diet).">
                        <a href="https://library.cdisc.org/api/mdr/cdashig/2-1/scenarios/LB.CentralProcessing/fields/LBCOND">LBCOND</a>
                     </span>
                     <br/>Core: R/C<br/>Type: Char</td>
                  <td/>
                  <td colspan="2" style="background-color:LightGray">This is an 'ask on entry' question.  May be able to determine some conditions, such as fasting, by using other specimen.collection attributes (e.g., fasting status).  Others might be captured as components or extensions.  Alternatively, obtain this information from the case report form entries.</td>
                  <td>There are explicit elements for Specimen.collection.fastingStatus and collection.fastingDuration.  May need extensions for other pre-conditions</td>
               </tr>
               <tr>
                  <th>Specimen Collection Position</th>
                  <td>
                     <span style="font-weight:bold">LBCPOS</span>
                  </td>
                  <td>
                     <span style="font-weight:bold">LBPOS*</span>
                  </td>
                  <td>
                     <span title="Details concerning the specimen collection.">
                        <a style="font-weight:bold"
                           href="{{site.data.fhir.path}}specimen-definitions.html#Specimen.collection">Specimen.collection</a>
                     </span>
                     <br/>0..1 <a href="{{site.data.fhir.path}}datatypes.html#BackboneElement">BackboneElement</a>
                  </td>
                  <td>
                     <p>Observation.specimen.resolve().collection.extension(observation-bodyPosition).valueCodeableConcept</p>
                  </td>
                  <td>As reported from the lab.  Will need to map to CDISC controlled terminology</td>
               </tr>
               <tr>
                  <th>Specimen Usability for the Test</th>
                  <td>
                     <span style="font-weight:bold">LBCSPCUF</span>
                  </td>
                  <td>
                     <span style="font-weight:bold">LBSPCUFL*</span>
                  </td>
                  <td>
                     <span title="The availability of the specimen.">
                        <a style="font-weight:bold"
                           href="{{site.data.fhir.path}}specimen-definitions.html#Specimen.status">Specimen.status</a>
                     </span>
                     <br/>0..1 <a href="{{site.data.fhir.path}}datatypes.html#code">code</a>
                     <br/>Binding: <a href="http://hl7.org/fhir/ValueSet/specimen-status">SpecimenStatus</a> 
                     <a href="{{site.data.fhir.path}}terminologies.html#required">required</a>
                  </td>
                  <td>
                     <p>Observation.specimen.resolve()status.where($this='Unsatisfactory')</p>
                  </td>
                  <td>Need to translate to blank or N if not received as blank or N<br/>
                     <br/>May not be applicable for safety labs.</td>
               </tr>
               <tr>
                  <th rowspan="2">Category</th>
                  <td rowspan="2">
                     <span style="font-weight:bold">LBCCAT</span>
                  </td>
                  <td rowspan="2">
                     <span style="font-weight:bold"
                           title="Used to define a category of related records across subjects. Examples: such as HEMATOLOGY, URINALYSIS, CHEMISTRY.">
                        <a href="https://library.cdisc.org/api/mdr/sdtmig/3-2/datasets/LB/variables/LBCAT">LBCAT</a>
                     </span>
                     <br/>Core: Exp<br/>Type: Char</td>
                  <td>
                     <span title="A code that classifies the clinical discipline, department or diagnostic service that created the report (e.g. cardiology, biochemistry, hematology, MRI). This is used for searching, sorting and display purposes.">
                        <a style="font-weight:bold"
                           href="{{site.data.fhir.path}}diagnosticreport-definitions.html#DiagnosticReport.category">DiagnosticReport.category</a>
                     </span>
                     <br/>0..* <a href="{{site.data.fhir.path}}datatypes.html#CodeableConcept">CodeableConcept</a>
                     <br/>Binding: <a href="http://hl7.org/fhir/ValueSet/diagnostic-service-sections">DiagnosticServiceSection</a> 
                     <a href="{{site.data.fhir.path}}terminologies.html#example">example</a>
                  </td>
                  <td>
                     <p>DiagnosticReport.category.coding.where(system='LBSCAT').code</p>
                  </td>
                  <td rowspan="2">NOTE: In some cases, this may be inferred from the LOINC.  It might also be found by looking for the 'panel' Obsesrvation this Observation is a part of.  In most cases, translation will be required to sponsor-defined codes.  It may work best for the sponsor to categorize based on TESTCD values and ignore lab-reported and EHR-determined categories entirely.</td>
               </tr>
               <tr>
                  <td>
                     <span title="A code or name that describes this diagnostic report.">
                        <a style="font-weight:bold"
                           href="{{site.data.fhir.path}}diagnosticreport-definitions.html#DiagnosticReport.code">DiagnosticReport.code</a>
                     </span>
                     <br/>1..1 <a href="{{site.data.fhir.path}}datatypes.html#CodeableConcept">CodeableConcept</a>
                     <br/>Binding: <a href="http://hl7.org/fhir/ValueSet/report-codes">DiagnosticReportCodes</a> 
                     <a href="{{site.data.fhir.path}}terminologies.html#preferred">preferred</a>
                  </td>
                  <td>
                     <p>DiagnosticReport.code</p>
                  </td>
               </tr>
               <tr>
                  <th rowspan="2">Test Status</th>
                  <td rowspan="2">
                     <span style="font-weight:bold">LBCSTAT</span>
                  </td>
                  <td rowspan="2">
                     <span style="font-weight:bold"
                           title="Used to indicate exam not done. Should be null if a result exists in LBORRES.">
                        <a href="https://library.cdisc.org/api/mdr/sdtmig/3-2/datasets/LB/variables/LBSTAT">LBSTAT</a>
                     </span>
                     <br/>Core: Perm<br/>Type: Char</td>
                  <td>
                     <span title="Set this to true if the record is saying that the service/procedure should NOT be performed.">
                        <a style="font-weight:bold"
                           href="{{site.data.fhir.path}}servicerequest-definitions.html#ServiceRequest.doNotPerform">ServiceRequest.doNotPerform</a>
                     </span>
                     <br/>0..1 <a href="{{site.data.fhir.path}}datatypes.html#boolean">boolean</a>
                  </td>
                  <td>
                     <p>Observation.basedOn.resolve().doNotPerform</p>
                  </td>
                  <td rowspan="2">Sponsor may choose to map a situation in which the entire panel is cancelled as one summary record compliant with SDTM IG examples.
Some sponsor may decline to accept cancelled records under specific circumstances (e.g., unscheduled)
Sponsor may also choose to populate LBREASND as CANCELLED<br/>
                     <br/>Needs to be translated from FHIR vocabulary to SDTM controlled terminology:   FHIR -&gt; CDISC:
Not performed = NOT DONE
Cancelled = NOT DONE
Completed = &lt;blank&gt;
</td>
               </tr>
               <tr>
                  <td>
                     <span title="The status of the order.">
                        <a style="font-weight:bold"
                           href="{{site.data.fhir.path}}servicerequest-definitions.html#ServiceRequest.status">ServiceRequest.status</a>
                     </span>
                     <br/>1..1 <a href="{{site.data.fhir.path}}datatypes.html#code">code</a>
                     <br/>Binding: <a href="http://hl7.org/fhir/ValueSet/request-status">ServiceRequestStatus</a> 
                     <a href="{{site.data.fhir.path}}terminologies.html#required">required</a>
                  </td>
                  <td>
                     <p>Observation.basedOn.resolve().status</p>
                  </td>
               </tr>
               <tr>
                  <th>Reason Test Not Done</th>
                  <td/>
                  <td>
                     <span style="font-weight:bold"
                           title="Describes why a measurement or test was not performed such as BROKEN EQUIPMENT, SUBJECT REFUSED, or SPECIMEN LOST. Used in conjunction with LBSTAT when value is NOT DONE.">
                        <a href="https://library.cdisc.org/api/mdr/sdtmig/3-2/datasets/LB/variables/LBREASND">LBREASND</a>
                     </span>
                     <br/>Core: Perm<br/>Type: Char</td>
                  <td>
                     <span title="Provides a reason why the expected value in the element Observation.value[x] is missing.">
                        <a style="font-weight:bold"
                           href="{{site.data.fhir.path}}observation-definitions.html#Observation.dataAbsentReason">Observation.dataAbsentReason</a>
                     </span>
                     <br/>0..1 <a href="{{site.data.fhir.path}}datatypes.html#CodeableConcept">CodeableConcept</a> obs-6<br/>Binding: <a href="http://hl7.org/fhir/ValueSet/data-absent-reason">ObservationValueAbsentReason</a> 
                     <a href="{{site.data.fhir.path}}terminologies.html#extensible">extensible</a>
                  </td>
                  <td>
                     <p>Observation.dataAbsentReason.text</p>
                  </td>
                  <td>see notes on LBSTAT</td>
               </tr>
               <tr>
                  <th>Lab Test or Examination Short Name</th>
                  <td/>
                  <td>
                     <span style="font-weight:bold"
                           title="Short name of the measurement, test, or examination described in LBTEST. It can be used as a column name when converting a dataset from a vertical to a horizontal format. The value in LBTESTCD cannot be longer than 8 characters, nor can it start with a number (e.g.&#34;1TEST&#34;). LBTESTCD cannot contain characters other than letters, numbers, or underscores. Examples: ALT, LDH.">
                        <a href="https://library.cdisc.org/api/mdr/sdtmig/3-2/datasets/LB/variables/LBTESTCD">LBTESTCD</a>
                     </span>
                     <br/>Core: Req<br/>Type: Char</td>
                  <td>
                     <span title="Describes what was observed. Sometimes this is called the observation &#34;name&#34;.">
                        <a style="font-weight:bold"
                           href="{{site.data.fhir.path}}observation-definitions.html#Observation.code">Observation.code</a>
                     </span>
                     <br/>1..1 <a href="{{site.data.fhir.path}}datatypes.html#CodeableConcept">CodeableConcept</a>
                     <br/>Binding: <a href="http://hl7.org/fhir/ValueSet/observation-codes">ObservationCode</a> 
                     <a href="{{site.data.fhir.path}}terminologies.html#example">example</a>
                  </td>
                  <td>
                     <p>Observation.code.coding.where(selected=true).code</p>
                  </td>
                  <td>Translate to compliant terminology (if needed)</td>
               </tr>
               <tr>
                  <th>Lab Test or Examination Name</th>
                  <td/>
                  <td>
                     <span style="font-weight:bold"
                           title="Verbatim name of the test or examination used to obtain the measurement or finding. Note any test normally performed by a clinical laboratory is considered a lab test. The value in LBTEST cannot be longer than 40 characters. Examples: Alanine Aminotransferase, Lactate Dehydrogenase.">
                        <a href="https://library.cdisc.org/api/mdr/sdtmig/3-2/datasets/LB/variables/LBTEST">LBTEST</a>
                     </span>
                     <br/>Core: Req<br/>Type: Char</td>
                  <td>
                     <span title="Describes what was observed. Sometimes this is called the observation &#34;name&#34;.">
                        <a style="font-weight:bold"
                           href="{{site.data.fhir.path}}observation-definitions.html#Observation.code">Observation.code</a>
                     </span>
                     <br/>1..1 <a href="{{site.data.fhir.path}}datatypes.html#CodeableConcept">CodeableConcept</a>
                     <br/>Binding: <a href="http://hl7.org/fhir/ValueSet/observation-codes">ObservationCode</a> 
                     <a href="{{site.data.fhir.path}}terminologies.html#example">example</a>
                  </td>
                  <td>
                     <p>Observation.code.coding.where(selected=true).display</p>
                  </td>
                  <td>Translate to compliant terminology (if needed)</td>
               </tr>
               <tr>
                  <th>Test LOINC Code</th>
                  <td>
                     <span style="font-weight:bold">LBLOINC</span>
                  </td>
                  <td>
                     <span style="font-weight:bold"
                           title="1. Dictionary-derived LOINC Code for LBTEST. 2. The sponsor is expected to provide the dictionary name and version used to map the terms utilizing the define.xml external codelist attributes">
                        <a href="https://library.cdisc.org/api/mdr/sdtmig/3-2/datasets/LB/variables/LBLOINC">LBLOINC</a>
                     </span>
                     <br/>Core: Perm<br/>Type: Char</td>
                  <td>
                     <span title="Describes what was observed. Sometimes this is called the observation &#34;name&#34;.">
                        <a style="font-weight:bold"
                           href="{{site.data.fhir.path}}observation-definitions.html#Observation.code">Observation.code</a>
                     </span>
                     <br/>1..1 <a href="{{site.data.fhir.path}}datatypes.html#CodeableConcept">CodeableConcept</a>
                     <br/>Binding: <a href="http://hl7.org/fhir/ValueSet/observation-codes">ObservationCode</a> 
                     <a href="{{site.data.fhir.path}}terminologies.html#example">example</a>
                  </td>
                  <td>
                     <p>Observation.code.coding.where(system='http://loinc.org').code</p>
                  </td>
                  <td/>
               </tr>
               <tr>
                  <th>Vendor Name</th>
                  <td>
                     <span style="font-weight:bold"
                           title="The name or identifier of the vendor (e.g., laboratory) that provided the test results.">
                        <a href="https://library.cdisc.org/api/mdr/cdashig/2-1/scenarios/LB.LocalProcessing/fields/LBNAM">LBNAM</a>
                     </span>
                     <br/>Core: R/C<br/>Type: Char</td>
                  <td>
                     <span style="font-weight:bold"
                           title="The name or identifier of the laboratory that performed the test.">
                        <a href="https://library.cdisc.org/api/mdr/sdtmig/3-2/datasets/LB/variables/LBNAM">LBNAM</a>
                     </span>
                     <br/>Core: Perm<br/>Type: Char</td>
                  <td>
                     <span title="A name associated with the organization.">
                        <a style="font-weight:bold"
                           href="{{site.data.fhir.path}}organization-definitions.html#Organization.name">Organization.name</a>
                     </span>
                     <br/>0..1 <a href="{{site.data.fhir.path}}datatypes.html#string">string</a> org-1</td>
                  <td>
                     <p>Observation.performer.where($this is Organization).resolve().name</p>
                  </td>
                  <td/>
               </tr>
               <tr>
                  <th>Reference Range Indicator</th>
                  <td>
                     <span style="font-weight:bold">LBCNRIND</span>
                  </td>
                  <td>
                     <span style="font-weight:bold"
                           title="1. Indicates where the value falls with respect to reference range defined by LBORNRLO and LBORNRHI, LBSTNRLO and LBSTNRHI, or by LBSTNRC. Examples: NORMAL, ABNORMAL, HIGH, LOW. 2. Sponsors should specify in the study metadata (Comments column in the define.xml) whether LBNRIND refers to the original or standard reference ranges and results. 3. Should not be used to indicate clinical significance.">
                        <a href="https://library.cdisc.org/api/mdr/sdtmig/3-2/datasets/LB/variables/LBNRIND">LBNRIND</a>
                     </span>
                     <br/>Core: Exp<br/>Type: Char</td>
                  <td>
                     <span title="A categorical assessment of an observation value.  For example, high, low, normal.">
                        <a style="font-weight:bold"
                           href="{{site.data.fhir.path}}observation-definitions.html#Observation.interpretation">Observation.interpretation</a>
                     </span>
                     <br/>0..* <a href="{{site.data.fhir.path}}datatypes.html#CodeableConcept">CodeableConcept</a>
                     <br/>Binding: <a href="http://hl7.org/fhir/ValueSet/observation-interpretation">ObservationInterpretation</a> 
                     <a href="{{site.data.fhir.path}}terminologies.html#extensible">extensible</a>
                  </td>
                  <td>
                     <p>Observation.interpretation.where(system ='NRIND')</p>
                  </td>
                  <td>Must map to CDISC controlled terminology</td>
               </tr>
               <tr>
                  <th>Standard Toxicity Grade</th>
                  <td/>
                  <td>
                     <span style="font-weight:bold"
                           title="Records toxicity grade value using a standard toxicity scale (such as the NCI CTCAE). If value is from a numeric scale, represent only the number (e.g., &#34;2&#34; and not &#34;Grade 2&#34;). The sponsor is expected to provide the name of the scale and version used to map the terms, utilizing the define.xml external codelist attributes.">
                        <a href="https://library.cdisc.org/api/mdr/sdtmig/3-2/datasets/LB/variables/LBTOXGR">LBTOXGR</a>
                     </span>
                     <br/>Core: Perm<br/>Type: Char</td>
                  <td>
                     <span title="A categorical assessment of an observation value.  For example, high, low, normal.">
                        <a style="font-weight:bold"
                           href="{{site.data.fhir.path}}observation-definitions.html#Observation.interpretation">Observation.interpretation</a>
                     </span>
                     <br/>0..* <a href="{{site.data.fhir.path}}datatypes.html#CodeableConcept">CodeableConcept</a>
                     <br/>Binding: <a href="http://hl7.org/fhir/ValueSet/observation-interpretation">ObservationInterpretation</a> 
                     <a href="{{site.data.fhir.path}}terminologies.html#extensible">extensible</a>
                  </td>
                  <td>
                     <p>Observation.interpretation.where(system=[Toxicity Grade]).coding.code</p>
                  </td>
                  <td>Must map to sponsor-determind terminology</td>
               </tr>
               <tr>
                  <th>Toxicity Grade Code List Version</th>
                  <td>
                     <span style="font-weight:bold">LBCTOXV</span>
                  </td>
                  <td>
                     <span style="font-weight:bold"
                           title="Description of toxicity quantified by LBTOXGR. The sponsor is expected to provide the name of the scale and version used to map the terms, utilizing the define.xml external codelist attributes.">
                        <a href="https://library.cdisc.org/api/mdr/sdtmig/3-2/datasets/LB/variables/LBTOX">LBTOX</a>
                     </span>
                     <br/>Core: Perm<br/>Type: Char</td>
                  <td>
                     <span title="A categorical assessment of an observation value.  For example, high, low, normal.">
                        <a style="font-weight:bold"
                           href="{{site.data.fhir.path}}observation-definitions.html#Observation.interpretation">Observation.interpretation</a>
                     </span>
                     <br/>0..* <a href="{{site.data.fhir.path}}datatypes.html#CodeableConcept">CodeableConcept</a>
                     <br/>Binding: <a href="http://hl7.org/fhir/ValueSet/observation-interpretation">ObservationInterpretation</a> 
                     <a href="{{site.data.fhir.path}}terminologies.html#extensible">extensible</a>
                  </td>
                  <td>
                     <p>Observation.interpretation.where(system=[Toxicity Grade]).coding.version</p>
                  </td>
                  <td>Typically FHIR systems will only populate Coding.version where the terminology is ill-behaved and code meanings change over time.  The code system version doesn't convey what value set the user was choosing from (which could be a subset of the codes from the code system or could draw from multiple code systems).</td>
               </tr>
               <tr>
                  <th>Toxicity Grade Code List</th>
                  <td>
                     <span style="font-weight:bold">LBCTOX</span>
                  </td>
                  <td>
                     <span style="font-weight:bold"
                           title="Description of toxicity quantified by LBTOXGR. The sponsor is expected to provide the name of the scale and version used to map the terms, utilizing the define.xml external codelist attributes.">
                        <a href="https://library.cdisc.org/api/mdr/sdtmig/3-2/datasets/LB/variables/LBTOX">LBTOX</a>
                     </span>
                     <br/>Core: Perm<br/>Type: Char</td>
                  <td>
                     <span title="A categorical assessment of an observation value.  For example, high, low, normal.">
                        <a style="font-weight:bold"
                           href="{{site.data.fhir.path}}observation-definitions.html#Observation.interpretation">Observation.interpretation</a>
                     </span>
                     <br/>0..* <a href="{{site.data.fhir.path}}datatypes.html#CodeableConcept">CodeableConcept</a>
                     <br/>Binding: <a href="http://hl7.org/fhir/ValueSet/observation-interpretation">ObservationInterpretation</a> 
                     <a href="{{site.data.fhir.path}}terminologies.html#extensible">extensible</a>
                  </td>
                  <td>
                     <p>Observation.interpretation.where(system=[Toxicity Grade]).system</p>
                  </td>
                  <td>Note that the system doesn't define the value set nor does it specify value set version or code system version(s)</td>
               </tr>
               <tr>
                  <th>Lab Ref Range Lower Limit in Orig Unit</th>
                  <td>
                     <span style="font-weight:bold"
                           title="The lower end of normal range or reference range for continuous results stored in LBORRES.">
                        <a href="https://library.cdisc.org/api/mdr/cdashig/2-1/scenarios/LB.LocalProcessing/fields/LBORNRLO">LBORNRLO</a>
                     </span>
                     <br/>Core: R/C<br/>Type: Char</td>
                  <td>
                     <span style="font-weight:bold"
                           title="Lower end of reference range for continuous measurements in original units. Should be populated only for continuous results.">
                        <a href="https://library.cdisc.org/api/mdr/sdtmig/3-2/datasets/LB/variables/LBORNRLO">LBORNRLO</a>
                     </span>
                     <br/>Core: Exp<br/>Type: Char</td>
                  <td>
                     <span title="Guidance on how to interpret the value by comparison to a normal or recommended range.  Multiple reference ranges are interpreted as an &#34;OR&#34;.   In other words, to represent two distinct target populations, two `referenceRange` elements would be used.">
                        <a style="font-weight:bold"
                           href="{{site.data.fhir.path}}observation-definitions.html#Observation.referenceRange">Observation.referenceRange</a>
                     </span>
                     <br/>0..* <a href="{{site.data.fhir.path}}datatypes.html#BackboneElement">BackboneElement</a>
                  </td>
                  <td>
                     <p>Observation.referenceRange.low</p>
                  </td>
                  <td>As reported from the lab.</td>
               </tr>
               <tr>
                  <th>Lab Ref Range Upper Limit in Orig Unit</th>
                  <td>
                     <span style="font-weight:bold"
                           title="The upper end of normal range or reference range for continuous results stored in LBORRES.">
                        <a href="https://library.cdisc.org/api/mdr/cdashig/2-1/scenarios/LB.LocalProcessing/fields/LBORNRHI">LBORNRHI</a>
                     </span>
                     <br/>Core: R/C<br/>Type: Char</td>
                  <td>
                     <span style="font-weight:bold"
                           title="Upper end of reference range for continuous measurements in original units. Should be populated only for continuous results.">
                        <a href="https://library.cdisc.org/api/mdr/sdtmig/3-2/datasets/LB/variables/LBORNRHI">LBORNRHI</a>
                     </span>
                     <br/>Core: Exp<br/>Type: Char</td>
                  <td>
                     <span title="Guidance on how to interpret the value by comparison to a normal or recommended range.  Multiple reference ranges are interpreted as an &#34;OR&#34;.   In other words, to represent two distinct target populations, two `referenceRange` elements would be used.">
                        <a style="font-weight:bold"
                           href="{{site.data.fhir.path}}observation-definitions.html#Observation.referenceRange">Observation.referenceRange</a>
                     </span>
                     <br/>0..* <a href="{{site.data.fhir.path}}datatypes.html#BackboneElement">BackboneElement</a>
                  </td>
                  <td>
                     <p>Observation.referenceRange.high</p>
                  </td>
                  <td>As reported from the lab.</td>
               </tr>
               <tr>
                  <th>Reference Range (for string value)</th>
                  <td>
                     <span style="font-weight:bold">LBCSTNRC</span>
                  </td>
                  <td>
                     <span style="font-weight:bold"
                           title="For normal range values that are character in ordinal scale or if categorical ranges were supplied (e.g., &#34;-1 to +1&#34;, &#34;NEGATIVE TO TRACE&#34;).">
                        <a href="https://library.cdisc.org/api/mdr/sdtmig/3-2/datasets/LB/variables/LBSTNRC">LBSTNRC</a>
                     </span>
                     <br/>Core: Perm<br/>Type: Char</td>
                  <td>
                     <span title="Guidance on how to interpret the value by comparison to a normal or recommended range.  Multiple reference ranges are interpreted as an &#34;OR&#34;.   In other words, to represent two distinct target populations, two `referenceRange` elements would be used.">
                        <a style="font-weight:bold"
                           href="{{site.data.fhir.path}}observation-definitions.html#Observation.referenceRange">Observation.referenceRange</a>
                     </span>
                     <br/>0..* <a href="{{site.data.fhir.path}}datatypes.html#BackboneElement">BackboneElement</a>
                  </td>
                  <td>
                     <p>Observation.referenceRange.text</p>
                  </td>
                  <td>Sponsor would normalize this.</td>
               </tr>
               <tr>
                  <th>Lab Result or Finding in Original Units</th>
                  <td>
                     <span style="font-weight:bold"
                           title="Result of the measurement or finding as originally received or collected.">
                        <a href="https://library.cdisc.org/api/mdr/cdashig/2-1/scenarios/LB.CentralProcessingCS/fields/LBORRES">LBORRES</a>
                     </span>
                     <br/>Core: HR<br/>Type: Char</td>
                  <td>
                     <span style="font-weight:bold"
                           title="Result of the measurement or finding as originally received or collected.">
                        <a href="https://library.cdisc.org/api/mdr/sdtmig/3-2/datasets/LB/variables/LBORRES">LBORRES</a>
                     </span>
                     <br/>Core: Exp<br/>Type: Char</td>
                  <td>
                     <span title="The information determined as a result of making the observation, if the information has a simple value.">
                        <a style="font-weight:bold"
                           href="{{site.data.fhir.path}}observation-definitions.html#Observation.valueQuantity">Observation.valueQuantity</a>
                     </span>
                     <br/>0..1 <a href="{{site.data.fhir.path}}datatypes.html#Quantity">Quantity</a> obs-7</td>
                  <td>
                     <p>Observation.valueQuantity.value</p>
                     <p>Observation.valueCodeableConcept.text</p>
                  </td>
                  <td>Might also include valueQuantity.comparator<br/>
                     <br/>CDISC (and sponsors) may have different definitions about what constitutes an "original result".  Sponsors will need to make a determination of whether the value found in the Observation.value meets those criteria and is appropriate to be mapped.  (In some cases, what's in Observation.value could have been transformed from what was captured at the point of measurement.)</td>
               </tr>
               <tr>
                  <th>Reported Units</th>
                  <td>
                     <span style="font-weight:bold">LBRESU</span>
                  </td>
                  <td>
                     <span style="font-weight:bold"
                           title="Original units in which the data were collected. The unit for LBORRES. Example: g/L.">
                        <a href="https://library.cdisc.org/api/mdr/sdtmig/3-2/datasets/LB/variables/LBORRESU">LBORRESU</a>
                     </span>
                     <br/>Core: Exp<br/>Type: Char</td>
                  <td>
                     <span title="The information determined as a result of making the observation, if the information has a simple value.">
                        <a style="font-weight:bold"
                           href="{{site.data.fhir.path}}observation-definitions.html#Observation.valueQuantity">Observation.valueQuantity</a>
                     </span>
                     <br/>0..1 <a href="{{site.data.fhir.path}}datatypes.html#Quantity">Quantity</a> obs-7</td>
                  <td>
                     <p>Observation.valueQuantity.unit</p>
                  </td>
                  <td>Needs to be translated to match the controlled terminology, if not already compliant</td>
               </tr>
               <tr>
                  <th>Lab Clinical Significance</th>
                  <td>
                     <span style="font-weight:bold"
                           title="An indication whether lab test results were clinically significant.">
                        <a href="https://library.cdisc.org/api/mdr/cdashig/2-1/scenarios/LB.CentralProcessingCS/fields/LBCLSIG">LBCLSIG</a>
                     </span>
                     <br/>Core: HR<br/>Type: Char</td>
                  <td>
                     <span style="font-weight:bold">SUPPLB.QVAL</span>
                  </td>
                  <td>
                     <span title="A categorical assessment of an observation value.  For example, high, low, normal.">
                        <a style="font-weight:bold"
                           href="{{site.data.fhir.path}}observation-definitions.html#Observation.interpretation">Observation.interpretation</a>
                     </span>
                     <br/>0..* <a href="{{site.data.fhir.path}}datatypes.html#CodeableConcept">CodeableConcept</a>
                     <br/>Binding: <a href="http://hl7.org/fhir/ValueSet/observation-interpretation">ObservationInterpretation</a> 
                     <a href="{{site.data.fhir.path}}terminologies.html#extensible">extensible</a>
                  </td>
                  <td>
                     <p>Observation.interpretation</p>
                  </td>
                  <td>As determined by the lab, not the sponsor</td>
               </tr>
               <tr>
                  <th>Method</th>
                  <td>
                     <span style="font-weight:bold">LBCMETH</span>
                  </td>
                  <td>
                     <span style="font-weight:bold"
                           title="Method of the test or examination. Examples: EIA (Enzyme Immunoassay), ELECTROPHORESIS, DIPSTICK">
                        <a href="https://library.cdisc.org/api/mdr/sdtmig/3-2/datasets/LB/variables/LBMETHOD">LBMETHOD</a>
                     </span>
                     <br/>Core: Perm<br/>Type: Char</td>
                  <td>
                     <span title="Indicates the mechanism used to perform the observation.">
                        <a style="font-weight:bold"
                           href="{{site.data.fhir.path}}observation-definitions.html#Observation.method">Observation.method</a>
                     </span>
                     <br/>0..1 <a href="{{site.data.fhir.path}}datatypes.html#CodeableConcept">CodeableConcept</a>
                     <br/>Binding: <a href="http://hl7.org/fhir/ValueSet/observation-methods">ObservationMethod</a> 
                     <a href="{{site.data.fhir.path}}terminologies.html#example">example</a>
                  </td>
                  <td>
                     <p>Observation.method</p>
                  </td>
                  <td>Method can cover collection and many other features.  In some cases, collection method may be inferred from the Observation.code.  Would need to map to CDISC controlled terminology</td>
               </tr>
               <tr>
                  <th>Anatomical Region </th>
                  <td/>
                  <td>
                     <span style="font-weight:bold">LBLOC*</span>
                  </td>
                  <td>
                     <span title="Anatomical location from which the specimen was collected (if subject is a patient). This is the target site.  This element is not used for environmental specimens.">
                        <a style="font-weight:bold"
                           href="{{site.data.fhir.path}}specimen-definitions.html#Specimen.collection.bodySite">Specimen.collection.bodySite</a>
                     </span>
                     <br/>0..1 <a href="{{site.data.fhir.path}}datatypes.html#CodeableConcept">CodeableConcept</a>
                     <br/>Binding: <a href="http://hl7.org/fhir/ValueSet/body-site">BodySite</a> 
                     <a href="{{site.data.fhir.path}}terminologies.html#example">example</a>
                  </td>
                  <td>
                     <p>Observation.specimen.resolve().collection.bodySite</p>
                  </td>
                  <td>In some cases, the anatomical location can be inferred from the Observation.code.  Would need to map to CDISC controlled terminology.</td>
               </tr>
               <tr>
                  <th>Run ID</th>
                  <td>
                     <span style="font-weight:bold">LBRUNID</span>
                  </td>
                  <td>
                     <span style="font-weight:bold">LBRUNID*</span>
                  </td>
                  <td colspan="2" style="background-color:LightGray">Would need to introduce an extension</td>
                  <td>May not be applicable for safety labs.</td>
               </tr>
               <tr>
                  <th>Unique Subject Identifier</th>
                  <td/>
                  <td>
                     <span style="font-weight:bold"
                           title="Identifier used to uniquely identify a subject across all studies for all applications or submissions involving the product.">
                        <a href="https://library.cdisc.org/api/mdr/sdtmig/3-2/datasets/LB/variables/USUBJID">USUBJID</a>
                     </span>
                     <br/>Core: Req<br/>Type: Char</td>
                  <td>
                     <span title="An identifier for this patient.">
                        <a style="font-weight:bold"
                           href="{{site.data.fhir.path}}patient-definitions.html#Patient.identifier">Patient.identifier</a>
                     </span>
                     <br/>0..* <a href="{{site.data.fhir.path}}datatypes.html#Identifier">Identifier</a>
                  </td>
                  <td>
                     <p>Observation.subject.resolve().identifier.value</p>
                  </td>
                  <td>To find an identifier that was consistent for the subject across studies would typically mean looking to the Patient identifier.  However, this may not be appropriate to be exposed directly, so some degree of mapping, obfuscation or anonymization may be required.<br/>
                     <br/>In theory, a sponsor specific study-independent identifier could be maintained on Patient alongside other patient identifiers, but this would be unusual in most clinical systems.</td>
               </tr>
               <tr>
                  <th>Result Categorization</th>
                  <td>
                     <span style="font-weight:bold">LBRESCAT</span>
                  </td>
                  <td>
                     <span style="font-weight:bold">LBRESCAT*</span>
                  </td>
                  <td>
                     <span title="A categorical assessment of an observation value.  For example, high, low, normal.">
                        <a style="font-weight:bold"
                           href="{{site.data.fhir.path}}observation-definitions.html#Observation.interpretation">Observation.interpretation</a>
                     </span>
                     <br/>0..* <a href="{{site.data.fhir.path}}datatypes.html#CodeableConcept">CodeableConcept</a>
                     <br/>Binding: <a href="http://hl7.org/fhir/ValueSet/observation-interpretation">ObservationInterpretation</a> 
                     <a href="{{site.data.fhir.path}}terminologies.html#extensible">extensible</a>
                  </td>
                  <td>
                     <p>Observation.interpretation</p>
                  </td>
                  <td>This wouldn't come from the lab.  It *could* be added after the fact.  If so, this would be the mapping</td>
               </tr>
               <tr>
                  <th>Anatomical Region</th>
                  <td>
                     <span style="font-weight:bold">LBANTREG</span>
                  </td>
                  <td>
                     <span style="font-weight:bold">LBANTREG*</span>
                  </td>
                  <td>
                     <span title="Anatomical location from which the specimen was collected (if subject is a patient). This is the target site.  This element is not used for environmental specimens.">
                        <a style="font-weight:bold"
                           href="{{site.data.fhir.path}}specimen-definitions.html#Specimen.collection.bodySite">Specimen.collection.bodySite</a>
                     </span>
                     <br/>0..1 <a href="{{site.data.fhir.path}}datatypes.html#CodeableConcept">CodeableConcept</a>
                     <br/>Binding: <a href="http://hl7.org/fhir/ValueSet/body-site">BodySite</a> 
                     <a href="{{site.data.fhir.path}}terminologies.html#example">example</a>
                  </td>
                  <td>
                     <p>Observation.specimen.resolve().collection.bodySite</p>
                  </td>
                  <td>Not differentiated from LBLOC.  Not for basic safety labs</td>
               </tr>
               <tr>
                  <th>Unscheduled Flag</th>
                  <td>
                     <span style="font-weight:bold">LBUSCHFL</span>
                  </td>
                  <td>
                     <span style="font-weight:bold">LBUSCHFL*</span>
                  </td>
                  <td colspan="2" style="background-color:LightGray">This can sort of be inferred from the absence of a link to a PlanDefinition or ActivityDefinition, however there are lots of other reasons these links could be missing, so that's not totally reliable.  Could look at using an extension or a tag<br/>
                     <br/>Not generally used for human clinical trials</td>
                  <td/>
               </tr>
               <tr>
                  <th>Planned Time Point Number</th>
                  <td/>
                  <td>
                     <span style="font-weight:bold"
                           title="Numerical version of LBTPT to aid in sorting.">
                        <a href="https://library.cdisc.org/api/mdr/sdtmig/3-2/datasets/LB/variables/LBTPTNUM">LBTPTNUM</a>
                     </span>
                     <br/>Core: Perm<br/>Type: Num</td>
                  <td colspan="2" style="background-color:LightGray">Pull this information from the Clinical Plan (PlanDefinition)</td>
                  <td>Link to the clinical plan would be through the Observation.basedOn link to CarePlan or the instantiatesCanonical link to PlanDefinition or ActivityDefinition</td>
               </tr>
               <tr>
                  <th>Analytical Method</th>
                  <td/>
                  <td>
                     <span style="font-weight:bold">LBANMETH*</span>
                  </td>
                  <td colspan="2" style="background-color:LightGray">This does not apply to safety labs.</td>
                  <td>The corresponding values need to be evaluated and aligned accordingly to the CDISC context of --METHOD.
Potentially could appear in Observation.method.  An extension is required to distinguish.</td>
               </tr>
               <tr>
                  <th>Baseline Flag</th>
                  <td/>
                  <td>
                     <span style="font-weight:bold"
                           title="Indicator used to identify a baseline value. The value should be &#34;Y&#34; or null.">
                        <a href="https://library.cdisc.org/api/mdr/sdtmig/3-2/datasets/LB/variables/LBBLFL">LBBLFL</a>
                     </span>
                     <br/>Core: Exp<br/>Type: Char</td>
                  <td colspan="2" style="background-color:LightGray">Variable may be deprecated.  This information would come from the Sponsor.</td>
                  <td>Could appear in Observation.reasonCode.  In practice the notion of 'baseline' is more of a relationship.  Any arbitrary Observation might be selected as the 'baseline' for a particular step in the study.  As such, the real linkage is the tie to the CarePlan activity that's tied to the ActivityDefinition with a reason of 'baseline'.</td>
               </tr>
               <tr>
                  <th>Derived Flag</th>
                  <td/>
                  <td>
                     <span style="font-weight:bold"
                           title="Used to indicate a derived record. The value should be Y or null. Records that represent the average of other records, or do not come from the CRF, or are not as originally received or collected are examples of records that might be derived for the submission datasets. If LBDRVFL=Y, then LBORRES may be null, with LBSTRESC, and (if numeric) LBSTRESN having the derived value.">
                        <a href="https://library.cdisc.org/api/mdr/sdtmig/3-2/datasets/LB/variables/LBDRVFL">LBDRVFL</a>
                     </span>
                     <br/>Core: Perm<br/>Type: Char</td>
                  <td colspan="2" style="background-color:LightGray">This information would come from the Sponsor.</td>
                  <td>FHIR doesn't use a flag.  If an Observation is derived, it should point to the Observations it's derived from with the derivedFrom association.  (If that relationship is present, then the Derived Flag is true)</td>
               </tr>
            </tbody>
         </table>
      </div>
      <div id="mapping">
         <table class="grid"
                style="width:150%;word-break:break-word;table-layout:fixed;">
            <col style="width:15%"/>
            <col style="width:15%;"/>
            <col style="width:20%;"/>
            <col style="width:7.5%"/>
            <col style="width:7.5%"/>
            <col style="width:35%;"/>
            <thead style="background-color:PowderBlue;">
               <tr>
                  <th/>
                  <th colspan="2" style="text-align:center;">FHIR map (or gap)</th>
                  <th colspan="2" style="text-align:center;">CDISC</th>
                  <th rowspan="2" style="vertical-align:bottom;text-align:center;">Comment</th>
               </tr>
               <tr style="text-align:center;">
                  <th style="text-align:center;">Label</th>
                  <th style="text-align:center;">Element</th>
                  <th style="text-align:center;">FHIRPath</th>
                  <th style="text-align:center;">CDASH</th>
                  <th style="text-align:center;">SDTM</th>
               </tr>
            </thead>
            <tbody>
               <tr>
                  <th>Study Identifier</th>
                  <td>
                     <span title="Identifiers assigned to this research study by the sponsor or other systems.">
                        <a style="font-weight:bold"
                           href="{{site.data.fhir.path}}researchstudy-definitions.html#ResearchStudy.identifier">ResearchStudy.identifier</a>
                     </span>
                     <br/>0..* <a href="{{site.data.fhir.path}}datatypes.html#Identifier">Identifier</a>
                  </td>
                  <td>
                     <p>ResearchSubject.where(subject=Observation.subject).study.resolve().partOf.resolve().identifier.value</p>
                     <p>Observation.extension(workflow-researchstudy).valueReference.resolve().partOf.resolve().identifier.value</p>
                  </td>
                  <td>
                     <span style="font-weight:bold" title="A unique identifier for a study.">
                        <a href="https://library.cdisc.org/api/mdr/cdashig/2-1/domains/DM/fields/STUDYID">DM.STUDYID</a>
                     </span>
                     <br/>Core: HR<br/>Type: Char</td>
                  <td>
                     <span style="font-weight:bold" title="Unique identifier for a study.">
                        <a href="https://library.cdisc.org/api/mdr/sdtmig/3-2/datasets/DM/variables/STUDYID">DM.STUDYID</a>
                     </span>
                     <br/>Core: Req<br/>Type: Char</td>
                  <td>Mapping is based on presumption that research subject will be tied to site-specific ResearchStudy, which will then be part of overall ResearchStudy.<br/>
                     <br/>The path using the extension will only exist if the system maintaining the Observation is aware of its relevance to the Study.   ResearchStudy links to Patient. Observation links to Patient. If the patients are the same, that establishes the linkage. There's also an extension that allows direct linkage to a 'study' from any resource - if the source system has actually established such a linkage.</td>
               </tr>
               <tr>
                  <th>Study Site Identifier</th>
                  <td>
                     <span title="Identifiers assigned to this research study by the sponsor or other systems.">
                        <a style="font-weight:bold"
                           href="{{site.data.fhir.path}}researchstudy-definitions.html#ResearchStudy.identifier">ResearchStudy.identifier</a>
                     </span>
                     <br/>0..* <a href="{{site.data.fhir.path}}datatypes.html#Identifier">Identifier</a>
                  </td>
                  <td>
                     <p>ResearchSubject.where(subject=Observation.subject).study.resolve().identifier.value</p>
                     <p>Observation.extension(workflow-researchstudy).valueReference.resolve().identifier.value</p>
                  </td>
                  <td>
                     <span style="font-weight:bold"
                           title="A unique identifier for a site within a study.">
                        <a href="https://library.cdisc.org/api/mdr/cdashig/2-1/domains/DM/fields/SITEID">DM.SITEID</a>
                     </span>
                     <br/>Core: HR<br/>Type: Char</td>
                  <td>
                     <span style="font-weight:bold"
                           title="Unique identifier for a site within a study.">
                        <a href="https://library.cdisc.org/api/mdr/sdtmig/3-2/datasets/DM/variables/SITEID">DM.SITEID</a>
                     </span>
                     <br/>Core: Req<br/>Type: Char</td>
                  <td>Mapping is based on presumption that research subject will be tied to site-specific ResearchStudy, which will then be part of overall ResearchStudy.<br/>
                     <br/>The path using the extension will only exist if the system maintaining the Observation is aware of its relevance to the Study.    ResearchStudy links to Patient. Observation links to Patient. If the patients are the same, that establishes the linkage. There's also an extension that allows direct linkage to a 'study' from any resource - if the source system has actually established such a linkage.</td>
               </tr>
               <tr>
                  <th>Investigator Identifier</th>
                  <td>
                     <span title="An identifier that applies to this person in this role.">
                        <a style="font-weight:bold"
                           href="{{site.data.fhir.path}}practitioner-definitions.html#Practitioner.identifier">Practitioner.identifier</a>
                     </span>
                     <br/>0..* <a href="{{site.data.fhir.path}}datatypes.html#Identifier">Identifier</a>
                  </td>
                  <td>
                     <p>ResearchSubject.where(subject=Observation.subject).study.resolve().principleInvestigator.resolve().identifier.value</p>
                     <p>Observation.extension(workflow-researchstudy).valueReference.resolve().principleInvestigator.resolve().identifier.value</p>
                  </td>
                  <td/>
                  <td>
                     <span style="font-weight:bold"
                           title="An identifier to describe the Investigator for the study. May be used in addition to SITEID. Not needed if SITEID is equivalent to INVID.">
                        <a href="https://library.cdisc.org/api/mdr/sdtmig/3-2/datasets/DM/variables/INVID">DM.INVID</a>
                     </span>
                     <br/>Core: Perm<br/>Type: Char</td>
                  <td>Will need to decide which id to expose.  If you want the PI for the overall study rather than just for the site associated with the Observation, you'll need to traverse the partOf.resolve() from the study-specific ResearchStudy.<br/>
                     <br/>The path using the extension will only exist if the system maintaining the Observation is aware of its relevance to the Study.</td>
               </tr>
               <tr>
                  <th>Subject Identifier for the Study</th>
                  <td>
                     <span title="Identifiers assigned to this research subject for a study.">
                        <a style="font-weight:bold"
                           href="{{site.data.fhir.path}}researchsubject-definitions.html#ResearchSubject.identifier">ResearchSubject.identifier</a>
                     </span>
                     <br/>0..* <a href="{{site.data.fhir.path}}datatypes.html#Identifier">Identifier</a>
                  </td>
                  <td>
                     <p>ResearchSubject.where(individual=Observation.subject).identifier.value</p>
                  </td>
                  <td>
                     <span style="font-weight:bold"
                           title="A unique subject identifier within a site and a study.">
                        <a href="https://library.cdisc.org/api/mdr/cdashig/2-1/domains/DM/fields/SUBJID">DM.SUBJID</a>
                     </span>
                     <br/>Core: HR<br/>Type: Char</td>
                  <td>
                     <span style="font-weight:bold"
                           title="Subject identifier, which must be unique within the study. Often the ID of the subject as recorded on a CRF.">
                        <a href="https://library.cdisc.org/api/mdr/sdtmig/3-2/datasets/DM/variables/SUBJID">DM.SUBJID</a>
                     </span>
                     <br/>Core: Req<br/>Type: Char</td>
                  <td>Study subject is found by finding the StudySubject that corresponds to the same Patient and ResearchStudy as the Observation.<br/>
                     <br/>No standard way to decide which subject identifier to use</td>
               </tr>
               <tr>
                  <th>Visit Number</th>
                  <td>
                     <span title="Identifier(s) by which this encounter is known.">
                        <a style="font-weight:bold"
                           href="{{site.data.fhir.path}}encounter-definitions.html#Encounter.identifier">Encounter.identifier</a>
                     </span>
                     <br/>0..* <a href="{{site.data.fhir.path}}datatypes.html#Identifier">Identifier</a>
                  </td>
                  <td>
                     <p>Observation.encounter.resolve().identifier</p>
                  </td>
                  <td>
                     <span style="font-weight:bold">VISITNUM</span>
                  </td>
                  <td>
                     <span style="font-weight:bold"
                           title="1. Clinical encounter number. 2. Numeric version of VISIT, used for sorting.">
                        <a href="https://library.cdisc.org/api/mdr/sdtmig/3-2/datasets/LB/variables/VISITNUM">VISITNUM</a>
                     </span>
                     <br/>Core: Exp<br/>Type: Num</td>
                  <td>This won't necessarily correlate with the protocol-defined visit number.  Correspondance to a protocol-defined visit will typically require rules-based analysis based on time, encounter type and other factors.</td>
               </tr>
               <tr>
                  <th>Visit Name</th>
                  <td>
                     <span title="A natural language name identifying the activity definition. This name should be usable as an identifier for the module by machine processing applications such as code generation.">
                        <a style="font-weight:bold"
                           href="{{site.data.fhir.path}}activitydefinition-definitions.html#ActivityDefinition.name">ActivityDefinition.name</a>
                     </span>
                     <br/>0..1 <a href="{{site.data.fhir.path}}datatypes.html#string">string</a> inv-0</td>
                  <td>
                     <p>Observation.encounter.resolve().extension(workflow-instantiates).valueCanonical.resolve().title</p>
                  </td>
                  <td>
                     <span style="font-weight:bold"
                           title="The name of a clinical encounter that encompasses planned and unplanned trial interventions, procedures, and assessments that may be performed on a subject.">
                        <a href="https://library.cdisc.org/api/mdr/cdashig/2-1/scenarios/LB.CentralProcessing/fields/VISIT">VISIT</a>
                     </span>
                     <br/>Core: R/C<br/>Type: Char</td>
                  <td>
                     <span style="font-weight:bold"
                           title="1. Protocol-defined description of clinical encounter 2. May be used in addition to VISITNUM and/or VISITDY">
                        <a href="https://library.cdisc.org/api/mdr/sdtmig/3-2/datasets/LB/variables/VISIT">VISIT</a>
                     </span>
                     <br/>Core: Perm<br/>Type: Char</td>
                  <td>In most cases, real world data won't have a direct association to a study protocol activity and the link would need to be inferred.  However, if it exists, it would map as follows:<br/>
                     <br/>We could go through Encounter.basedOn-&gt; ServiceRequest.instantiatesCanonical, you arrive at ActivityDefinition.   Encounter should have a standard instantiatesCanonical extension that would allow pointing to the ActivityDefinition.  This would be the ActivityDefinition.name.  Submit a change request to add the extension</td>
               </tr>
               <tr>
                  <th>Lab Specimen ID</th>
                  <td>
                     <span title="The identifier assigned by the lab when accessioning specimen(s). This is not necessarily the same as the specimen identifier, depending on local lab procedures.">
                        <a style="font-weight:bold"
                           href="{{site.data.fhir.path}}specimen-definitions.html#Specimen.accessionIdentifier">Specimen.accessionIdentifier</a>
                     </span>
                     <br/>0..1 <a href="{{site.data.fhir.path}}datatypes.html#Identifier">Identifier</a>
                  </td>
                  <td>
                     <p>Observation.specimen.resolve().accessionIdentifier.value</p>
                  </td>
                  <td>
                     <span style="font-weight:bold"
                           title="An internal or external identifier such as specimen identifier.">
                        <a href="https://library.cdisc.org/api/mdr/cdashig/2-1/scenarios/LB.CentralProcessing/fields/LBREFID">LBREFID</a>
                     </span>
                     <br/>Core: R/C<br/>Type: Char</td>
                  <td>
                     <span style="font-weight:bold"
                           title="Internal or external specimen identifier. Example: Specimen ID.">
                        <a href="https://library.cdisc.org/api/mdr/sdtmig/3-2/datasets/LB/variables/LBREFID">LBREFID</a>
                     </span>
                     <br/>Core: Perm<br/>Type: Char</td>
                  <td>As reported from the Site</td>
               </tr>
               <tr>
                  <th rowspan="2">Date/Time of Specimen Collection</th>
                  <td>
                     <span title="Time when specimen was collected from subject - the physiologically relevant time.">
                        <a style="font-weight:bold"
                           href="{{site.data.fhir.path}}specimen-definitions.html#Specimen.collection.collectedDateTime">Specimen.collection.collectedDateTime</a>
                     </span>
                     <br/>0..1 <a href="{{site.data.fhir.path}}datatypes.html#dateTime">dateTime</a>
                  </td>
                  <td>
                     <p>Observation.specimen.resolve().collection.collectedDateTime</p>
                  </td>
                  <td rowspan="2"/>
                  <td rowspan="2">
                     <span style="font-weight:bold">
                        <a href="https://library.cdisc.org/api/mdr/sdtmig/3-2/datasets/LB/variables/LBDTC">LBDTC</a>
                     </span>
                     <br/>Core: Exp<br/>Type: Char<br/>values: ISO 8601</td>
                  <td rowspan="2">NOTE: no mapping included for CDASH LBDAT and LBTIM
To map directly, the data must be formatted in ISO 8601 date/time format (e.g., 2015-02-07T13:28:17-05:00)</td>
               </tr>
               <tr>
                  <td>
                     <span title="Time when specimen was collected from subject - the physiologically relevant time.">
                        <a style="font-weight:bold"
                           href="{{site.data.fhir.path}}specimen-definitions.html#Specimen.collection.collectedPeriod">Specimen.collection.collectedPeriod</a>
                     </span>
                     <br/>0..1 <a href="{{site.data.fhir.path}}datatypes.html#Period">Period</a>
                  </td>
                  <td>
                     <p>Observation.specimen.resolve().collection.collectedPeriod.start</p>
                  </td>
               </tr>
               <tr>
                  <th>End Date/Time of Specimen Collection</th>
                  <td>
                     <span title="Time when specimen was collected from subject - the physiologically relevant time.">
                        <a style="font-weight:bold"
                           href="{{site.data.fhir.path}}specimen-definitions.html#Specimen.collection.collectedPeriod">Specimen.collection.collectedPeriod</a>
                     </span>
                     <br/>0..1 <a href="{{site.data.fhir.path}}datatypes.html#Period">Period</a>
                  </td>
                  <td>
                     <p>Observation.specimen.resolve().collection.collectedPeriod.end</p>
                  </td>
                  <td/>
                  <td>
                     <span style="font-weight:bold">
                        <a href="https://library.cdisc.org/api/mdr/sdtmig/3-2/datasets/LB/variables/LBENDTC">LBENDTC</a>
                     </span>
                     <br/>Core: Perm<br/>Type: Char<br/>values: ISO 8601</td>
                  <td>NOTE: No mapping included for CDASH LBENDAT and LBENTIM)<br/>
                     <br/>To map directly, the data must be formatted in ISO 8601 date/time format (e.g., 2015-02-07T13:28:17-05:00)</td>
               </tr>
               <tr>
                  <th>Specimen Collection Duration (for Clinical Research with extended time of collection)</th>
                  <td>
                     <span title="Time when specimen was collected from subject - the physiologically relevant time.">
                        <a style="font-weight:bold"
                           href="{{site.data.fhir.path}}specimen-definitions.html#Specimen.collection.collectedPeriod">Specimen.collection.collectedPeriod</a>
                     </span>
                     <br/>0..1 <a href="{{site.data.fhir.path}}datatypes.html#Period">Period</a>
                  </td>
                  <td>
                     <p>Observation.specimen.resolve().collection.collectedPeriod</p>
                  </td>
                  <td>
                     <span style="font-weight:bold">LBCDUR</span>
                  </td>
                  <td>
                     <span style="font-weight:bold">LBDUR*</span>
                  </td>
                  <td>Will need to convert value and unit to ISO syntax.  E.g. 90 min would convert to PT1H30M</td>
               </tr>
               <tr>
                  <th>Specimen Planned Time Point Name (Planned Collection Time Point - time within Encounter)</th>
                  <td>
                     <span title="May be used to represent additional information that is not part of the basic definition of the resource. To make the use of extensions safe and manageable, there is a strict set of governance  applied to the definition and use of extensions. Though any implementer can define an extension, there is a set of requirements that SHALL be met as part of the definition of the extension.">
                        <a style="font-weight:bold"
                           href="{{site.data.fhir.path}}specimen-definitions.html#Specimen.extension">Specimen.extension</a>
                     </span>
                     <br/>0..* <a href="{{site.data.fhir.path}}datatypes.html#Extension">Extension</a>
                  </td>
                  <td>
                     <p>Observation.specimen.resolve().extension(cqf-relativeDateTime).extension('reference').valueReference.reference.resolve().title</p>
                  </td>
                  <td>
                     <span style="font-weight:bold">LBCTPT</span>
                  </td>
                  <td>
                     <span style="font-weight:bold"
                           title="1. Text Description of time when specimen should be taken. 2. This may be represented as an elapsed time relative to a fixed reference point, such as time of last dose. See LBTPTNUM and LBTPTREF. Examples: Start, 5 min post.">
                        <a href="https://library.cdisc.org/api/mdr/sdtmig/3-2/datasets/LB/variables/LBTPT">LBTPT</a>
                     </span>
                     <br/>Core: Perm<br/>Type: Char</td>
                  <td>Typically named timepoints won't exist in real-world data and the timing point name will need to be assigned by the sponsor.  However, this shows where the data would be expressed in FHIR if it was present there.</td>
               </tr>
               <tr>
                  <th>Specimen Planned Elapsed Time from Time Point Reference</th>
                  <td>
                     <span title="May be used to represent additional information that is not part of the basic definition of the resource. To make the use of extensions safe and manageable, there is a strict set of governance  applied to the definition and use of extensions. Though any implementer can define an extension, there is a set of requirements that SHALL be met as part of the definition of the extension.">
                        <a style="font-weight:bold"
                           href="{{site.data.fhir.path}}specimen-definitions.html#Specimen.extension">Specimen.extension</a>
                     </span>
                     <br/>0..* <a href="{{site.data.fhir.path}}datatypes.html#Extension">Extension</a>
                  </td>
                  <td>
                     <p>Observation.specimen.resolve().extension(cqf-relativeDateTime).extension('offset').valueDuration</p>
                  </td>
                  <td>
                     <span style="font-weight:bold">LBCELTM</span>
                  </td>
                  <td>
                     <span style="font-weight:bold"
                           title="Planned Elapsed time (in ISO 8601) relative to a planned fixed reference (LBTPTREF). This variable is useful where there are repetitive measures. Not a clock time or a date time variable. Represented as an ISO 8601 duration. Examples: &#34;-PT15M&#34; to represent the period of 15 minutes prior to the reference point indicated by LBTPTREF, or &#34;PT8H&#34; to represent the period of 8 hours after the reference point indicated by LBTPTREF.">
                        <a href="https://library.cdisc.org/api/mdr/sdtmig/3-2/datasets/LB/variables/LBELTM">LBELTM</a>
                     </span>
                     <br/>Core: Perm<br/>Type: Char<br/>values: ISO 8601</td>
                  <td>Typically named timepoints won't exist in real-world data and the timing point offset will need to be calculated by the sponsor.  However, this shows where the data would be expressed in FHIR if it was present there.  If present, would need to translate to ISO-8601</td>
               </tr>
               <tr>
                  <th>Specimen Condition</th>
                  <td>
                     <span title="A mode or state of being that describes the nature of the specimen.">
                        <a style="font-weight:bold"
                           href="{{site.data.fhir.path}}specimen-definitions.html#Specimen.condition">Specimen.condition</a>
                     </span>
                     <br/>0..* <a href="{{site.data.fhir.path}}datatypes.html#CodeableConcept">CodeableConcept</a>
                     <br/>Binding: <a href="http://terminology.hl7.org/ValueSet/v2-0493">SpecimenCondition</a> 
                     <a href="{{site.data.fhir.path}}terminologies.html#extensible">extensible</a>
                  </td>
                  <td>
                     <p>Observation.specimen.resolve().condition.coding.code</p>
                  </td>
                  <td>
                     <span style="font-weight:bold">LBCSPCCN</span>
                  </td>
                  <td>
                     <span style="font-weight:bold"
                           title="Free or standardized text describing the condition of the specimen e.g. HEMOLYZED, ICTERIC, LIPEMIC etc.">
                        <a href="https://library.cdisc.org/api/mdr/sdtmig/3-2/datasets/LB/variables/LBSPCCND">LBSPCCND</a>
                     </span>
                     <br/>Core: Perm<br/>Type: Char</td>
                  <td>Recommend submitting change proposals to extend the FHIR vocabulary to include CDISC values.  Sponsor will need to decide how to map when FHIR terminology contains codes not present in CDISC.<br/>
                     <br/>NOTE: requires an extension to the FHIR vocabulary to include CDISC values (e.g., Refrigerated).  An "as collected" version of the SDTM variable is recommended to allow the sponsor to make adjustments to ensure terminology compliance while mapping to SDTM.</td>
               </tr>
               <tr>
                  <th>Specimen Type</th>
                  <td>
                     <span title="The kind of material that forms the specimen.">
                        <a style="font-weight:bold"
                           href="{{site.data.fhir.path}}specimen-definitions.html#Specimen.type">Specimen.type</a>
                     </span>
                     <br/>0..1 <a href="{{site.data.fhir.path}}datatypes.html#CodeableConcept">CodeableConcept</a>
                     <br/>Binding: <a href="http://terminology.hl7.org/ValueSet/v2-0487">SpecimenType</a> 
                     <a href="{{site.data.fhir.path}}terminologies.html#example">example</a>
                  </td>
                  <td>
                     <p>Observation.specimen.resolve().type.coding.display</p>
                  </td>
                  <td>
                     <span style="font-weight:bold">LBCSPEC</span>
                  </td>
                  <td>
                     <span style="font-weight:bold"
                           title="Defines the type of specimen used for a measurement. Examples: SERUM, PLASMA, URINE.">
                        <a href="https://library.cdisc.org/api/mdr/sdtmig/3-2/datasets/LB/variables/LBSPEC">LBSPEC</a>
                     </span>
                     <br/>Core: Perm<br/>Type: Char</td>
                  <td>NOTE: In some cases, this may be inferred from the LOINC.<br/>
                     <br/>FHIR terminology is not standardized.  Sponsor will need to map to CDISC terminology if raw data does not use CDISC codes.  An "as collected" version of the SDTM variable is recommended to allow the sponsor to make adjustments to ensure terminology compliance while mapping to SDTM.</td>
               </tr>
               <tr>
                  <th>Fasting Status</th>
                  <td>
                     <span title="Abstinence or reduction from some or all food, drink, or both, for a period of time prior to sample collection.">
                        <a style="font-weight:bold"
                           href="{{site.data.fhir.path}}specimen-definitions.html#Specimen.collection.fastingStatusCodeableConcept">Specimen.collection.fastingStatusCodeableConcept</a>
                     </span>
                     <br/>0..1 <a href="{{site.data.fhir.path}}datatypes.html#CodeableConcept">CodeableConcept</a>
                     <br/>Binding: <a href="http://terminology.hl7.org/ValueSet/v2-0916">FastingStatus</a> 
                     <a href="{{site.data.fhir.path}}terminologies.html#extensible">extensible</a>
                  </td>
                  <td>
                     <p>Observation.specimen.resolve().collection.fastingStatusCodeableConcept.coding.code</p>
                  </td>
                  <td>
                     <span style="font-weight:bold">LBCFAST</span>
                  </td>
                  <td>
                     <span style="font-weight:bold"
                           title="Indicator used to identify fasting status such as Y, N, U, or null if not relevant.">
                        <a href="https://library.cdisc.org/api/mdr/sdtmig/3-2/datasets/LB/variables/LBFAST">LBFAST</a>
                     </span>
                     <br/>Core: Perm<br/>Type: Char</td>
                  <td>CDISC to FHIR mapping as follows:
F -&gt; Y; NF -&gt; N; FNA -&gt; N/A; NG -&gt; Not Applicable.<br/>
                     <br/>If fastingStatusDuration is present and non-zero, that would also map to 'Y'.   In some cases, this may be inferred from the LOINC term (Challenge). For example, Challenge=post CFst to signify a calorie fast.</td>
               </tr>
               <tr>
                  <th>Lab Test Condition Met</th>
                  <td colspan="2" style="background-color:LightGray">This is an 'ask on entry' question.  May be able to determine some conditions, such as fasting, by using other specimen.collection attributes (e.g., fasting status).  Others might be captured as components or extensions.  Alternatively, obtain this information from the case report form entries.</td>
                  <td>
                     <span style="font-weight:bold"
                           title="Indication whether the testing condition defined in the protocol were met (e.g., Low fat diet).">
                        <a href="https://library.cdisc.org/api/mdr/cdashig/2-1/scenarios/LB.CentralProcessing/fields/LBCOND">LBCOND</a>
                     </span>
                     <br/>Core: R/C<br/>Type: Char</td>
                  <td/>
                  <td>There are explicit elements for Specimen.collection.fastingStatus and collection.fastingDuration.  May need extensions for other pre-conditions</td>
               </tr>
               <tr>
                  <th>Specimen Collection Position</th>
                  <td>
                     <span title="Details concerning the specimen collection.">
                        <a style="font-weight:bold"
                           href="{{site.data.fhir.path}}specimen-definitions.html#Specimen.collection">Specimen.collection</a>
                     </span>
                     <br/>0..1 <a href="{{site.data.fhir.path}}datatypes.html#BackboneElement">BackboneElement</a>
                  </td>
                  <td>
                     <p>Observation.specimen.resolve().collection.extension(observation-bodyPosition).valueCodeableConcept</p>
                  </td>
                  <td>
                     <span style="font-weight:bold">LBCPOS</span>
                  </td>
                  <td>
                     <span style="font-weight:bold">LBPOS*</span>
                  </td>
                  <td>As reported from the lab.  Will need to map to CDISC controlled terminology</td>
               </tr>
               <tr>
                  <th>Specimen Usability for the Test</th>
                  <td>
                     <span title="The availability of the specimen.">
                        <a style="font-weight:bold"
                           href="{{site.data.fhir.path}}specimen-definitions.html#Specimen.status">Specimen.status</a>
                     </span>
                     <br/>0..1 <a href="{{site.data.fhir.path}}datatypes.html#code">code</a>
                     <br/>Binding: <a href="http://hl7.org/fhir/ValueSet/specimen-status">SpecimenStatus</a> 
                     <a href="{{site.data.fhir.path}}terminologies.html#required">required</a>
                  </td>
                  <td>
                     <p>Observation.specimen.resolve()status.where($this='Unsatisfactory')</p>
                  </td>
                  <td>
                     <span style="font-weight:bold">LBCSPCUF</span>
                  </td>
                  <td>
                     <span style="font-weight:bold">LBSPCUFL*</span>
                  </td>
                  <td>Need to translate to blank or N if not received as blank or N<br/>
                     <br/>May not be applicable for safety labs.</td>
               </tr>
               <tr>
                  <th rowspan="2">Category</th>
                  <td>
                     <span title="A code that classifies the clinical discipline, department or diagnostic service that created the report (e.g. cardiology, biochemistry, hematology, MRI). This is used for searching, sorting and display purposes.">
                        <a style="font-weight:bold"
                           href="{{site.data.fhir.path}}diagnosticreport-definitions.html#DiagnosticReport.category">DiagnosticReport.category</a>
                     </span>
                     <br/>0..* <a href="{{site.data.fhir.path}}datatypes.html#CodeableConcept">CodeableConcept</a>
                     <br/>Binding: <a href="http://hl7.org/fhir/ValueSet/diagnostic-service-sections">DiagnosticServiceSection</a> 
                     <a href="{{site.data.fhir.path}}terminologies.html#example">example</a>
                  </td>
                  <td>
                     <p>DiagnosticReport.category.coding.where(system='LBSCAT').code</p>
                  </td>
                  <td rowspan="2">
                     <span style="font-weight:bold">LBCCAT</span>
                  </td>
                  <td rowspan="2">
                     <span style="font-weight:bold"
                           title="Used to define a category of related records across subjects. Examples: such as HEMATOLOGY, URINALYSIS, CHEMISTRY.">
                        <a href="https://library.cdisc.org/api/mdr/sdtmig/3-2/datasets/LB/variables/LBCAT">LBCAT</a>
                     </span>
                     <br/>Core: Exp<br/>Type: Char</td>
                  <td rowspan="2">NOTE: In some cases, this may be inferred from the LOINC.  It might also be found by looking for the 'panel' Obsesrvation this Observation is a part of.  In most cases, translation will be required to sponsor-defined codes.  It may work best for the sponsor to categorize based on TESTCD values and ignore lab-reported and EHR-determined categories entirely.</td>
               </tr>
               <tr>
                  <td>
                     <span title="A code or name that describes this diagnostic report.">
                        <a style="font-weight:bold"
                           href="{{site.data.fhir.path}}diagnosticreport-definitions.html#DiagnosticReport.code">DiagnosticReport.code</a>
                     </span>
                     <br/>1..1 <a href="{{site.data.fhir.path}}datatypes.html#CodeableConcept">CodeableConcept</a>
                     <br/>Binding: <a href="http://hl7.org/fhir/ValueSet/report-codes">DiagnosticReportCodes</a> 
                     <a href="{{site.data.fhir.path}}terminologies.html#preferred">preferred</a>
                  </td>
                  <td>
                     <p>DiagnosticReport.code</p>
                  </td>
               </tr>
               <tr>
                  <th rowspan="2">Test Status</th>
                  <td>
                     <span title="Set this to true if the record is saying that the service/procedure should NOT be performed.">
                        <a style="font-weight:bold"
                           href="{{site.data.fhir.path}}servicerequest-definitions.html#ServiceRequest.doNotPerform">ServiceRequest.doNotPerform</a>
                     </span>
                     <br/>0..1 <a href="{{site.data.fhir.path}}datatypes.html#boolean">boolean</a>
                  </td>
                  <td>
                     <p>Observation.basedOn.resolve().doNotPerform</p>
                  </td>
                  <td rowspan="2">
                     <span style="font-weight:bold">LBCSTAT</span>
                  </td>
                  <td rowspan="2">
                     <span style="font-weight:bold"
                           title="Used to indicate exam not done. Should be null if a result exists in LBORRES.">
                        <a href="https://library.cdisc.org/api/mdr/sdtmig/3-2/datasets/LB/variables/LBSTAT">LBSTAT</a>
                     </span>
                     <br/>Core: Perm<br/>Type: Char</td>
                  <td rowspan="2">Sponsor may choose to map a situation in which the entire panel is cancelled as one summary record compliant with SDTM IG examples.
Some sponsor may decline to accept cancelled records under specific circumstances (e.g., unscheduled)
Sponsor may also choose to populate LBREASND as CANCELLED<br/>
                     <br/>Needs to be translated from FHIR vocabulary to SDTM controlled terminology:   FHIR -&gt; CDISC:
Not performed = NOT DONE
Cancelled = NOT DONE
Completed = &lt;blank&gt;
</td>
               </tr>
               <tr>
                  <td>
                     <span title="The status of the order.">
                        <a style="font-weight:bold"
                           href="{{site.data.fhir.path}}servicerequest-definitions.html#ServiceRequest.status">ServiceRequest.status</a>
                     </span>
                     <br/>1..1 <a href="{{site.data.fhir.path}}datatypes.html#code">code</a>
                     <br/>Binding: <a href="http://hl7.org/fhir/ValueSet/request-status">ServiceRequestStatus</a> 
                     <a href="{{site.data.fhir.path}}terminologies.html#required">required</a>
                  </td>
                  <td>
                     <p>Observation.basedOn.resolve().status</p>
                  </td>
               </tr>
               <tr>
                  <th>Reason Test Not Done</th>
                  <td>
                     <span title="Provides a reason why the expected value in the element Observation.value[x] is missing.">
                        <a style="font-weight:bold"
                           href="{{site.data.fhir.path}}observation-definitions.html#Observation.dataAbsentReason">Observation.dataAbsentReason</a>
                     </span>
                     <br/>0..1 <a href="{{site.data.fhir.path}}datatypes.html#CodeableConcept">CodeableConcept</a> obs-6<br/>Binding: <a href="http://hl7.org/fhir/ValueSet/data-absent-reason">ObservationValueAbsentReason</a> 
                     <a href="{{site.data.fhir.path}}terminologies.html#extensible">extensible</a>
                  </td>
                  <td>
                     <p>Observation.dataAbsentReason.text</p>
                  </td>
                  <td/>
                  <td>
                     <span style="font-weight:bold"
                           title="Describes why a measurement or test was not performed such as BROKEN EQUIPMENT, SUBJECT REFUSED, or SPECIMEN LOST. Used in conjunction with LBSTAT when value is NOT DONE.">
                        <a href="https://library.cdisc.org/api/mdr/sdtmig/3-2/datasets/LB/variables/LBREASND">LBREASND</a>
                     </span>
                     <br/>Core: Perm<br/>Type: Char</td>
                  <td>see notes on LBSTAT</td>
               </tr>
               <tr>
                  <th>Lab Test or Examination Short Name</th>
                  <td>
                     <span title="Describes what was observed. Sometimes this is called the observation &#34;name&#34;.">
                        <a style="font-weight:bold"
                           href="{{site.data.fhir.path}}observation-definitions.html#Observation.code">Observation.code</a>
                     </span>
                     <br/>1..1 <a href="{{site.data.fhir.path}}datatypes.html#CodeableConcept">CodeableConcept</a>
                     <br/>Binding: <a href="http://hl7.org/fhir/ValueSet/observation-codes">ObservationCode</a> 
                     <a href="{{site.data.fhir.path}}terminologies.html#example">example</a>
                  </td>
                  <td>
                     <p>Observation.code.coding.where(selected=true).code</p>
                  </td>
                  <td/>
                  <td>
                     <span style="font-weight:bold"
                           title="Short name of the measurement, test, or examination described in LBTEST. It can be used as a column name when converting a dataset from a vertical to a horizontal format. The value in LBTESTCD cannot be longer than 8 characters, nor can it start with a number (e.g.&#34;1TEST&#34;). LBTESTCD cannot contain characters other than letters, numbers, or underscores. Examples: ALT, LDH.">
                        <a href="https://library.cdisc.org/api/mdr/sdtmig/3-2/datasets/LB/variables/LBTESTCD">LBTESTCD</a>
                     </span>
                     <br/>Core: Req<br/>Type: Char</td>
                  <td>Translate to compliant terminology (if needed)</td>
               </tr>
               <tr>
                  <th>Lab Test or Examination Name</th>
                  <td>
                     <span title="Describes what was observed. Sometimes this is called the observation &#34;name&#34;.">
                        <a style="font-weight:bold"
                           href="{{site.data.fhir.path}}observation-definitions.html#Observation.code">Observation.code</a>
                     </span>
                     <br/>1..1 <a href="{{site.data.fhir.path}}datatypes.html#CodeableConcept">CodeableConcept</a>
                     <br/>Binding: <a href="http://hl7.org/fhir/ValueSet/observation-codes">ObservationCode</a> 
                     <a href="{{site.data.fhir.path}}terminologies.html#example">example</a>
                  </td>
                  <td>
                     <p>Observation.code.coding.where(selected=true).display</p>
                  </td>
                  <td/>
                  <td>
                     <span style="font-weight:bold"
                           title="Verbatim name of the test or examination used to obtain the measurement or finding. Note any test normally performed by a clinical laboratory is considered a lab test. The value in LBTEST cannot be longer than 40 characters. Examples: Alanine Aminotransferase, Lactate Dehydrogenase.">
                        <a href="https://library.cdisc.org/api/mdr/sdtmig/3-2/datasets/LB/variables/LBTEST">LBTEST</a>
                     </span>
                     <br/>Core: Req<br/>Type: Char</td>
                  <td>Translate to compliant terminology (if needed)</td>
               </tr>
               <tr>
                  <th>Test LOINC Code</th>
                  <td>
                     <span title="Describes what was observed. Sometimes this is called the observation &#34;name&#34;.">
                        <a style="font-weight:bold"
                           href="{{site.data.fhir.path}}observation-definitions.html#Observation.code">Observation.code</a>
                     </span>
                     <br/>1..1 <a href="{{site.data.fhir.path}}datatypes.html#CodeableConcept">CodeableConcept</a>
                     <br/>Binding: <a href="http://hl7.org/fhir/ValueSet/observation-codes">ObservationCode</a> 
                     <a href="{{site.data.fhir.path}}terminologies.html#example">example</a>
                  </td>
                  <td>
                     <p>Observation.code.coding.where(system='http://loinc.org').code</p>
                  </td>
                  <td>
                     <span style="font-weight:bold">LBLOINC</span>
                  </td>
                  <td>
                     <span style="font-weight:bold"
                           title="1. Dictionary-derived LOINC Code for LBTEST. 2. The sponsor is expected to provide the dictionary name and version used to map the terms utilizing the define.xml external codelist attributes">
                        <a href="https://library.cdisc.org/api/mdr/sdtmig/3-2/datasets/LB/variables/LBLOINC">LBLOINC</a>
                     </span>
                     <br/>Core: Perm<br/>Type: Char</td>
                  <td/>
               </tr>
               <tr>
                  <th>Vendor Name</th>
                  <td>
                     <span title="A name associated with the organization.">
                        <a style="font-weight:bold"
                           href="{{site.data.fhir.path}}organization-definitions.html#Organization.name">Organization.name</a>
                     </span>
                     <br/>0..1 <a href="{{site.data.fhir.path}}datatypes.html#string">string</a> org-1</td>
                  <td>
                     <p>Observation.performer.where($this is Organization).resolve().name</p>
                  </td>
                  <td>
                     <span style="font-weight:bold"
                           title="The name or identifier of the vendor (e.g., laboratory) that provided the test results.">
                        <a href="https://library.cdisc.org/api/mdr/cdashig/2-1/scenarios/LB.LocalProcessing/fields/LBNAM">LBNAM</a>
                     </span>
                     <br/>Core: R/C<br/>Type: Char</td>
                  <td>
                     <span style="font-weight:bold"
                           title="The name or identifier of the laboratory that performed the test.">
                        <a href="https://library.cdisc.org/api/mdr/sdtmig/3-2/datasets/LB/variables/LBNAM">LBNAM</a>
                     </span>
                     <br/>Core: Perm<br/>Type: Char</td>
                  <td/>
               </tr>
               <tr>
                  <th>Reference Range Indicator</th>
                  <td>
                     <span title="A categorical assessment of an observation value.  For example, high, low, normal.">
                        <a style="font-weight:bold"
                           href="{{site.data.fhir.path}}observation-definitions.html#Observation.interpretation">Observation.interpretation</a>
                     </span>
                     <br/>0..* <a href="{{site.data.fhir.path}}datatypes.html#CodeableConcept">CodeableConcept</a>
                     <br/>Binding: <a href="http://hl7.org/fhir/ValueSet/observation-interpretation">ObservationInterpretation</a> 
                     <a href="{{site.data.fhir.path}}terminologies.html#extensible">extensible</a>
                  </td>
                  <td>
                     <p>Observation.interpretation.where(system ='NRIND')</p>
                  </td>
                  <td>
                     <span style="font-weight:bold">LBCNRIND</span>
                  </td>
                  <td>
                     <span style="font-weight:bold"
                           title="1. Indicates where the value falls with respect to reference range defined by LBORNRLO and LBORNRHI, LBSTNRLO and LBSTNRHI, or by LBSTNRC. Examples: NORMAL, ABNORMAL, HIGH, LOW. 2. Sponsors should specify in the study metadata (Comments column in the define.xml) whether LBNRIND refers to the original or standard reference ranges and results. 3. Should not be used to indicate clinical significance.">
                        <a href="https://library.cdisc.org/api/mdr/sdtmig/3-2/datasets/LB/variables/LBNRIND">LBNRIND</a>
                     </span>
                     <br/>Core: Exp<br/>Type: Char</td>
                  <td>Must map to CDISC controlled terminology</td>
               </tr>
               <tr>
                  <th>Standard Toxicity Grade</th>
                  <td>
                     <span title="A categorical assessment of an observation value.  For example, high, low, normal.">
                        <a style="font-weight:bold"
                           href="{{site.data.fhir.path}}observation-definitions.html#Observation.interpretation">Observation.interpretation</a>
                     </span>
                     <br/>0..* <a href="{{site.data.fhir.path}}datatypes.html#CodeableConcept">CodeableConcept</a>
                     <br/>Binding: <a href="http://hl7.org/fhir/ValueSet/observation-interpretation">ObservationInterpretation</a> 
                     <a href="{{site.data.fhir.path}}terminologies.html#extensible">extensible</a>
                  </td>
                  <td>
                     <p>Observation.interpretation.where(system=[Toxicity Grade]).coding.code</p>
                  </td>
                  <td/>
                  <td>
                     <span style="font-weight:bold"
                           title="Records toxicity grade value using a standard toxicity scale (such as the NCI CTCAE). If value is from a numeric scale, represent only the number (e.g., &#34;2&#34; and not &#34;Grade 2&#34;). The sponsor is expected to provide the name of the scale and version used to map the terms, utilizing the define.xml external codelist attributes.">
                        <a href="https://library.cdisc.org/api/mdr/sdtmig/3-2/datasets/LB/variables/LBTOXGR">LBTOXGR</a>
                     </span>
                     <br/>Core: Perm<br/>Type: Char</td>
                  <td>Must map to sponsor-determind terminology</td>
               </tr>
               <tr>
                  <th>Toxicity Grade Code List Version</th>
                  <td>
                     <span title="A categorical assessment of an observation value.  For example, high, low, normal.">
                        <a style="font-weight:bold"
                           href="{{site.data.fhir.path}}observation-definitions.html#Observation.interpretation">Observation.interpretation</a>
                     </span>
                     <br/>0..* <a href="{{site.data.fhir.path}}datatypes.html#CodeableConcept">CodeableConcept</a>
                     <br/>Binding: <a href="http://hl7.org/fhir/ValueSet/observation-interpretation">ObservationInterpretation</a> 
                     <a href="{{site.data.fhir.path}}terminologies.html#extensible">extensible</a>
                  </td>
                  <td>
                     <p>Observation.interpretation.where(system=[Toxicity Grade]).coding.version</p>
                  </td>
                  <td>
                     <span style="font-weight:bold">LBCTOXV</span>
                  </td>
                  <td>
                     <span style="font-weight:bold"
                           title="Description of toxicity quantified by LBTOXGR. The sponsor is expected to provide the name of the scale and version used to map the terms, utilizing the define.xml external codelist attributes.">
                        <a href="https://library.cdisc.org/api/mdr/sdtmig/3-2/datasets/LB/variables/LBTOX">LBTOX</a>
                     </span>
                     <br/>Core: Perm<br/>Type: Char</td>
                  <td>Typically FHIR systems will only populate Coding.version where the terminology is ill-behaved and code meanings change over time.  The code system version doesn't convey what value set the user was choosing from (which could be a subset of the codes from the code system or could draw from multiple code systems).</td>
               </tr>
               <tr>
                  <th>Toxicity Grade Code List</th>
                  <td>
                     <span title="A categorical assessment of an observation value.  For example, high, low, normal.">
                        <a style="font-weight:bold"
                           href="{{site.data.fhir.path}}observation-definitions.html#Observation.interpretation">Observation.interpretation</a>
                     </span>
                     <br/>0..* <a href="{{site.data.fhir.path}}datatypes.html#CodeableConcept">CodeableConcept</a>
                     <br/>Binding: <a href="http://hl7.org/fhir/ValueSet/observation-interpretation">ObservationInterpretation</a> 
                     <a href="{{site.data.fhir.path}}terminologies.html#extensible">extensible</a>
                  </td>
                  <td>
                     <p>Observation.interpretation.where(system=[Toxicity Grade]).system</p>
                  </td>
                  <td>
                     <span style="font-weight:bold">LBCTOX</span>
                  </td>
                  <td>
                     <span style="font-weight:bold"
                           title="Description of toxicity quantified by LBTOXGR. The sponsor is expected to provide the name of the scale and version used to map the terms, utilizing the define.xml external codelist attributes.">
                        <a href="https://library.cdisc.org/api/mdr/sdtmig/3-2/datasets/LB/variables/LBTOX">LBTOX</a>
                     </span>
                     <br/>Core: Perm<br/>Type: Char</td>
                  <td>Note that the system doesn't define the value set nor does it specify value set version or code system version(s)</td>
               </tr>
               <tr>
                  <th>Lab Ref Range Lower Limit in Orig Unit</th>
                  <td>
                     <span title="Guidance on how to interpret the value by comparison to a normal or recommended range.  Multiple reference ranges are interpreted as an &#34;OR&#34;.   In other words, to represent two distinct target populations, two `referenceRange` elements would be used.">
                        <a style="font-weight:bold"
                           href="{{site.data.fhir.path}}observation-definitions.html#Observation.referenceRange">Observation.referenceRange</a>
                     </span>
                     <br/>0..* <a href="{{site.data.fhir.path}}datatypes.html#BackboneElement">BackboneElement</a>
                  </td>
                  <td>
                     <p>Observation.referenceRange.low</p>
                  </td>
                  <td>
                     <span style="font-weight:bold"
                           title="The lower end of normal range or reference range for continuous results stored in LBORRES.">
                        <a href="https://library.cdisc.org/api/mdr/cdashig/2-1/scenarios/LB.LocalProcessing/fields/LBORNRLO">LBORNRLO</a>
                     </span>
                     <br/>Core: R/C<br/>Type: Char</td>
                  <td>
                     <span style="font-weight:bold"
                           title="Lower end of reference range for continuous measurements in original units. Should be populated only for continuous results.">
                        <a href="https://library.cdisc.org/api/mdr/sdtmig/3-2/datasets/LB/variables/LBORNRLO">LBORNRLO</a>
                     </span>
                     <br/>Core: Exp<br/>Type: Char</td>
                  <td>As reported from the lab.</td>
               </tr>
               <tr>
                  <th>Lab Ref Range Upper Limit in Orig Unit</th>
                  <td>
                     <span title="Guidance on how to interpret the value by comparison to a normal or recommended range.  Multiple reference ranges are interpreted as an &#34;OR&#34;.   In other words, to represent two distinct target populations, two `referenceRange` elements would be used.">
                        <a style="font-weight:bold"
                           href="{{site.data.fhir.path}}observation-definitions.html#Observation.referenceRange">Observation.referenceRange</a>
                     </span>
                     <br/>0..* <a href="{{site.data.fhir.path}}datatypes.html#BackboneElement">BackboneElement</a>
                  </td>
                  <td>
                     <p>Observation.referenceRange.high</p>
                  </td>
                  <td>
                     <span style="font-weight:bold"
                           title="The upper end of normal range or reference range for continuous results stored in LBORRES.">
                        <a href="https://library.cdisc.org/api/mdr/cdashig/2-1/scenarios/LB.LocalProcessing/fields/LBORNRHI">LBORNRHI</a>
                     </span>
                     <br/>Core: R/C<br/>Type: Char</td>
                  <td>
                     <span style="font-weight:bold"
                           title="Upper end of reference range for continuous measurements in original units. Should be populated only for continuous results.">
                        <a href="https://library.cdisc.org/api/mdr/sdtmig/3-2/datasets/LB/variables/LBORNRHI">LBORNRHI</a>
                     </span>
                     <br/>Core: Exp<br/>Type: Char</td>
                  <td>As reported from the lab.</td>
               </tr>
               <tr>
                  <th>Reference Range (for string value)</th>
                  <td>
                     <span title="Guidance on how to interpret the value by comparison to a normal or recommended range.  Multiple reference ranges are interpreted as an &#34;OR&#34;.   In other words, to represent two distinct target populations, two `referenceRange` elements would be used.">
                        <a style="font-weight:bold"
                           href="{{site.data.fhir.path}}observation-definitions.html#Observation.referenceRange">Observation.referenceRange</a>
                     </span>
                     <br/>0..* <a href="{{site.data.fhir.path}}datatypes.html#BackboneElement">BackboneElement</a>
                  </td>
                  <td>
                     <p>Observation.referenceRange.text</p>
                  </td>
                  <td>
                     <span style="font-weight:bold">LBCSTNRC</span>
                  </td>
                  <td>
                     <span style="font-weight:bold"
                           title="For normal range values that are character in ordinal scale or if categorical ranges were supplied (e.g., &#34;-1 to +1&#34;, &#34;NEGATIVE TO TRACE&#34;).">
                        <a href="https://library.cdisc.org/api/mdr/sdtmig/3-2/datasets/LB/variables/LBSTNRC">LBSTNRC</a>
                     </span>
                     <br/>Core: Perm<br/>Type: Char</td>
                  <td>Sponsor would normalize this.</td>
               </tr>
               <tr>
                  <th>Lab Result or Finding in Original Units</th>
                  <td>
                     <span title="The information determined as a result of making the observation, if the information has a simple value.">
                        <a style="font-weight:bold"
                           href="{{site.data.fhir.path}}observation-definitions.html#Observation.valueQuantity">Observation.valueQuantity</a>
                     </span>
                     <br/>0..1 <a href="{{site.data.fhir.path}}datatypes.html#Quantity">Quantity</a> obs-7</td>
                  <td>
                     <p>Observation.valueQuantity.value</p>
                     <p>Observation.valueCodeableConcept.text</p>
                  </td>
                  <td>
                     <span style="font-weight:bold"
                           title="Result of the measurement or finding as originally received or collected.">
                        <a href="https://library.cdisc.org/api/mdr/cdashig/2-1/scenarios/LB.CentralProcessingCS/fields/LBORRES">LBORRES</a>
                     </span>
                     <br/>Core: HR<br/>Type: Char</td>
                  <td>
                     <span style="font-weight:bold"
                           title="Result of the measurement or finding as originally received or collected.">
                        <a href="https://library.cdisc.org/api/mdr/sdtmig/3-2/datasets/LB/variables/LBORRES">LBORRES</a>
                     </span>
                     <br/>Core: Exp<br/>Type: Char</td>
                  <td>Might also include valueQuantity.comparator<br/>
                     <br/>CDISC (and sponsors) may have different definitions about what constitutes an "original result".  Sponsors will need to make a determination of whether the value found in the Observation.value meets those criteria and is appropriate to be mapped.  (In some cases, what's in Observation.value could have been transformed from what was captured at the point of measurement.)</td>
               </tr>
               <tr>
                  <th>Reported Units</th>
                  <td>
                     <span title="The information determined as a result of making the observation, if the information has a simple value.">
                        <a style="font-weight:bold"
                           href="{{site.data.fhir.path}}observation-definitions.html#Observation.valueQuantity">Observation.valueQuantity</a>
                     </span>
                     <br/>0..1 <a href="{{site.data.fhir.path}}datatypes.html#Quantity">Quantity</a> obs-7</td>
                  <td>
                     <p>Observation.valueQuantity.unit</p>
                  </td>
                  <td>
                     <span style="font-weight:bold">LBRESU</span>
                  </td>
                  <td>
                     <span style="font-weight:bold"
                           title="Original units in which the data were collected. The unit for LBORRES. Example: g/L.">
                        <a href="https://library.cdisc.org/api/mdr/sdtmig/3-2/datasets/LB/variables/LBORRESU">LBORRESU</a>
                     </span>
                     <br/>Core: Exp<br/>Type: Char</td>
                  <td>Needs to be translated to match the controlled terminology, if not already compliant</td>
               </tr>
               <tr>
                  <th>Lab Clinical Significance</th>
                  <td>
                     <span title="A categorical assessment of an observation value.  For example, high, low, normal.">
                        <a style="font-weight:bold"
                           href="{{site.data.fhir.path}}observation-definitions.html#Observation.interpretation">Observation.interpretation</a>
                     </span>
                     <br/>0..* <a href="{{site.data.fhir.path}}datatypes.html#CodeableConcept">CodeableConcept</a>
                     <br/>Binding: <a href="http://hl7.org/fhir/ValueSet/observation-interpretation">ObservationInterpretation</a> 
                     <a href="{{site.data.fhir.path}}terminologies.html#extensible">extensible</a>
                  </td>
                  <td>
                     <p>Observation.interpretation</p>
                  </td>
                  <td>
                     <span style="font-weight:bold"
                           title="An indication whether lab test results were clinically significant.">
                        <a href="https://library.cdisc.org/api/mdr/cdashig/2-1/scenarios/LB.CentralProcessingCS/fields/LBCLSIG">LBCLSIG</a>
                     </span>
                     <br/>Core: HR<br/>Type: Char</td>
                  <td>
                     <span style="font-weight:bold">SUPPLB.QVAL</span>
                  </td>
                  <td>As determined by the lab, not the sponsor</td>
               </tr>
               <tr>
                  <th>Method</th>
                  <td>
                     <span title="Indicates the mechanism used to perform the observation.">
                        <a style="font-weight:bold"
                           href="{{site.data.fhir.path}}observation-definitions.html#Observation.method">Observation.method</a>
                     </span>
                     <br/>0..1 <a href="{{site.data.fhir.path}}datatypes.html#CodeableConcept">CodeableConcept</a>
                     <br/>Binding: <a href="http://hl7.org/fhir/ValueSet/observation-methods">ObservationMethod</a> 
                     <a href="{{site.data.fhir.path}}terminologies.html#example">example</a>
                  </td>
                  <td>
                     <p>Observation.method</p>
                  </td>
                  <td>
                     <span style="font-weight:bold">LBCMETH</span>
                  </td>
                  <td>
                     <span style="font-weight:bold"
                           title="Method of the test or examination. Examples: EIA (Enzyme Immunoassay), ELECTROPHORESIS, DIPSTICK">
                        <a href="https://library.cdisc.org/api/mdr/sdtmig/3-2/datasets/LB/variables/LBMETHOD">LBMETHOD</a>
                     </span>
                     <br/>Core: Perm<br/>Type: Char</td>
                  <td>Method can cover collection and many other features.  In some cases, collection method may be inferred from the Observation.code.  Would need to map to CDISC controlled terminology</td>
               </tr>
               <tr>
                  <th>Anatomical Region </th>
                  <td>
                     <span title="Anatomical location from which the specimen was collected (if subject is a patient). This is the target site.  This element is not used for environmental specimens.">
                        <a style="font-weight:bold"
                           href="{{site.data.fhir.path}}specimen-definitions.html#Specimen.collection.bodySite">Specimen.collection.bodySite</a>
                     </span>
                     <br/>0..1 <a href="{{site.data.fhir.path}}datatypes.html#CodeableConcept">CodeableConcept</a>
                     <br/>Binding: <a href="http://hl7.org/fhir/ValueSet/body-site">BodySite</a> 
                     <a href="{{site.data.fhir.path}}terminologies.html#example">example</a>
                  </td>
                  <td>
                     <p>Observation.specimen.resolve().collection.bodySite</p>
                  </td>
                  <td/>
                  <td>
                     <span style="font-weight:bold">LBLOC*</span>
                  </td>
                  <td>In some cases, the anatomical location can be inferred from the Observation.code.  Would need to map to CDISC controlled terminology.</td>
               </tr>
               <tr>
                  <th>Run ID</th>
                  <td colspan="2" style="background-color:LightGray">Would need to introduce an extension</td>
                  <td>
                     <span style="font-weight:bold">LBRUNID</span>
                  </td>
                  <td>
                     <span style="font-weight:bold">LBRUNID*</span>
                  </td>
                  <td>May not be applicable for safety labs.</td>
               </tr>
               <tr>
                  <th>Unique Subject Identifier</th>
                  <td>
                     <span title="An identifier for this patient.">
                        <a style="font-weight:bold"
                           href="{{site.data.fhir.path}}patient-definitions.html#Patient.identifier">Patient.identifier</a>
                     </span>
                     <br/>0..* <a href="{{site.data.fhir.path}}datatypes.html#Identifier">Identifier</a>
                  </td>
                  <td>
                     <p>Observation.subject.resolve().identifier.value</p>
                  </td>
                  <td/>
                  <td>
                     <span style="font-weight:bold"
                           title="Identifier used to uniquely identify a subject across all studies for all applications or submissions involving the product.">
                        <a href="https://library.cdisc.org/api/mdr/sdtmig/3-2/datasets/LB/variables/USUBJID">USUBJID</a>
                     </span>
                     <br/>Core: Req<br/>Type: Char</td>
                  <td>To find an identifier that was consistent for the subject across studies would typically mean looking to the Patient identifier.  However, this may not be appropriate to be exposed directly, so some degree of mapping, obfuscation or anonymization may be required.<br/>
                     <br/>In theory, a sponsor specific study-independent identifier could be maintained on Patient alongside other patient identifiers, but this would be unusual in most clinical systems.</td>
               </tr>
               <tr>
                  <th>Result Categorization</th>
                  <td>
                     <span title="A categorical assessment of an observation value.  For example, high, low, normal.">
                        <a style="font-weight:bold"
                           href="{{site.data.fhir.path}}observation-definitions.html#Observation.interpretation">Observation.interpretation</a>
                     </span>
                     <br/>0..* <a href="{{site.data.fhir.path}}datatypes.html#CodeableConcept">CodeableConcept</a>
                     <br/>Binding: <a href="http://hl7.org/fhir/ValueSet/observation-interpretation">ObservationInterpretation</a> 
                     <a href="{{site.data.fhir.path}}terminologies.html#extensible">extensible</a>
                  </td>
                  <td>
                     <p>Observation.interpretation</p>
                  </td>
                  <td>
                     <span style="font-weight:bold">LBRESCAT</span>
                  </td>
                  <td>
                     <span style="font-weight:bold">LBRESCAT*</span>
                  </td>
                  <td>This wouldn't come from the lab.  It *could* be added after the fact.  If so, this would be the mapping</td>
               </tr>
               <tr>
                  <th>Anatomical Region</th>
                  <td>
                     <span title="Anatomical location from which the specimen was collected (if subject is a patient). This is the target site.  This element is not used for environmental specimens.">
                        <a style="font-weight:bold"
                           href="{{site.data.fhir.path}}specimen-definitions.html#Specimen.collection.bodySite">Specimen.collection.bodySite</a>
                     </span>
                     <br/>0..1 <a href="{{site.data.fhir.path}}datatypes.html#CodeableConcept">CodeableConcept</a>
                     <br/>Binding: <a href="http://hl7.org/fhir/ValueSet/body-site">BodySite</a> 
                     <a href="{{site.data.fhir.path}}terminologies.html#example">example</a>
                  </td>
                  <td>
                     <p>Observation.specimen.resolve().collection.bodySite</p>
                  </td>
                  <td>
                     <span style="font-weight:bold">LBANTREG</span>
                  </td>
                  <td>
                     <span style="font-weight:bold">LBANTREG*</span>
                  </td>
                  <td>Not differentiated from LBLOC.  Not for basic safety labs</td>
               </tr>
               <tr>
                  <th>Unscheduled Flag</th>
                  <td colspan="2" style="background-color:LightGray">This can sort of be inferred from the absence of a link to a PlanDefinition or ActivityDefinition, however there are lots of other reasons these links could be missing, so that's not totally reliable.  Could look at using an extension or a tag<br/>
                     <br/>Not generally used for human clinical trials</td>
                  <td>
                     <span style="font-weight:bold">LBUSCHFL</span>
                  </td>
                  <td>
                     <span style="font-weight:bold">LBUSCHFL*</span>
                  </td>
                  <td/>
               </tr>
               <tr>
                  <th>Planned Time Point Number</th>
                  <td colspan="2" style="background-color:LightGray">Pull this information from the Clinical Plan (PlanDefinition)</td>
                  <td/>
                  <td>
                     <span style="font-weight:bold"
                           title="Numerical version of LBTPT to aid in sorting.">
                        <a href="https://library.cdisc.org/api/mdr/sdtmig/3-2/datasets/LB/variables/LBTPTNUM">LBTPTNUM</a>
                     </span>
                     <br/>Core: Perm<br/>Type: Num</td>
                  <td>Link to the clinical plan would be through the Observation.basedOn link to CarePlan or the instantiatesCanonical link to PlanDefinition or ActivityDefinition</td>
               </tr>
               <tr>
                  <th>Analytical Method</th>
                  <td colspan="2" style="background-color:LightGray">This does not apply to safety labs.</td>
                  <td/>
                  <td>
                     <span style="font-weight:bold">LBANMETH*</span>
                  </td>
                  <td>The corresponding values need to be evaluated and aligned accordingly to the CDISC context of --METHOD.
Potentially could appear in Observation.method.  An extension is required to distinguish.</td>
               </tr>
               <tr>
                  <th>Baseline Flag</th>
                  <td colspan="2" style="background-color:LightGray">Variable may be deprecated.  This information would come from the Sponsor.</td>
                  <td/>
                  <td>
                     <span style="font-weight:bold"
                           title="Indicator used to identify a baseline value. The value should be &#34;Y&#34; or null.">
                        <a href="https://library.cdisc.org/api/mdr/sdtmig/3-2/datasets/LB/variables/LBBLFL">LBBLFL</a>
                     </span>
                     <br/>Core: Exp<br/>Type: Char</td>
                  <td>Could appear in Observation.reasonCode.  In practice the notion of 'baseline' is more of a relationship.  Any arbitrary Observation might be selected as the 'baseline' for a particular step in the study.  As such, the real linkage is the tie to the CarePlan activity that's tied to the ActivityDefinition with a reason of 'baseline'.</td>
               </tr>
               <tr>
                  <th>Derived Flag</th>
                  <td colspan="2" style="background-color:LightGray">This information would come from the Sponsor.</td>
                  <td/>
                  <td>
                     <span style="font-weight:bold"
                           title="Used to indicate a derived record. The value should be Y or null. Records that represent the average of other records, or do not come from the CRF, or are not as originally received or collected are examples of records that might be derived for the submission datasets. If LBDRVFL=Y, then LBORRES may be null, with LBSTRESC, and (if numeric) LBSTRESN having the derived value.">
                        <a href="https://library.cdisc.org/api/mdr/sdtmig/3-2/datasets/LB/variables/LBDRVFL">LBDRVFL</a>
                     </span>
                     <br/>Core: Perm<br/>Type: Char</td>
                  <td>FHIR doesn't use a flag.  If an Observation is derived, it should point to the Observations it's derived from with the derivedFrom association.  (If that relationship is present, then the Derived Flag is true)</td>
               </tr>
            </tbody>
         </table>
      </div>
   </div>
</div>
        {% assign includetabscripts = 'true' %}
      