<div>
   <p>
        Guidance on interpreting the tables can be found <a href="overview.html#mappings">here</a>.
      </p>
   <div id="tabs">
      <ul>
         <li>
            <a href="#lookup">CDISC Lookup view</a>
         </li>
         <li>
            <a href="#mapping">FHIR mapping view</a>
         </li>
      </ul>
      <div id="lookup">
         <table class="grid"
                style="width:150%;word-break:break-word;table-layout:fixed;">
            <col style="width:15%"/>
            <col style="width:7.5%"/>
            <col style="width:7.5%"/>
            <col style="width:15%;"/>
            <col style="width:20%;"/>
            <col style="width:35%;"/>
            <thead style="background-color:PowderBlue;">
               <tr>
                  <th colspan="3" style="text-align:center;">CDISC</th>
                  <th colspan="2" style="text-align:center;">FHIR map (or gap)</th>
                  <th rowspan="2" style="vertical-align:bottom;text-align:center;">Comment</th>
               </tr>
               <tr style="text-align:center;">
                  <th style="text-align:center;">Label</th>
                  <th style="text-align:center;">CDASH</th>
                  <th style="text-align:center;">SDTM</th>
                  <th style="text-align:center;">Element</th>
                  <th style="text-align:center;">FHIRPath</th>
               </tr>
            </thead>
            <tbody>
               <tr>
                  <th>Study Identifier</th>
                  <td>
                     <span style="font-weight:bold" title="A unique identifier for a study.">
                        <a href="https://library.cdisc.org/api/mdr/cdashig/2-1/domains/MH/fields/STUDYID">STUDYID</a>
                     </span>
                     <br/>Core: HR<br/>Type: Char</td>
                  <td>
                     <span style="font-weight:bold" title="Unique identifier for a study.">
                        <a href="https://library.cdisc.org/api/mdr/sdtmig/3-2/datasets/MH/variables/STUDYID">STUDYID</a>
                     </span>
                     <br/>Core: Req<br/>Type: Char</td>
                  <td>
                     <span title="Identifiers assigned to this research study by the sponsor or other systems.">
                        <a style="font-weight:bold"
                           href="{{site.data.fhir.path}}researchstudy-definitions.html#ResearchStudy.identifier">ResearchStudy.identifier</a>
                     </span>
                     <br/>0..* <a href="{{site.data.fhir.path}}datatypes.html#Identifier">Identifier</a>
                  </td>
                  <td>
                     <p>ResearchSubject.where(individual=(AdverseEvent.subject|Condition.subject|AllergyIntolerance.patient|Observation.subject).study.resolve().partOf.resolve().identifier.value</p>
                     <p>AdverseEvent.extension(workflow-researchstudy).valueReference.resolve().partOf.resolve().identifier.value</p>
                     <p>Condition.extension(workflow-researchstudy).valueReference.resolve().partOf.resolve().identifier.value</p>
                     <p>AllergyIntolerance.extension(workflow-researchstudy).valueReference.resolve().partOf.resolve().identifier.value</p>
                     <p>Observation.extension(workflow-researchstudy).valueReference.resolve().partOf.resolve().identifier.value</p>
                  </td>
                  <td>Mapping is based on presumption that research subject will be tied to site-specific ResearchStudy, which will then be part of overall ResearchStudy.<br/>
                     <br/>The path using the extension will only exist if the system maintaining the AdverseEvent/Condition/AllergyIntolerance/Observation is aware of its relevance to the Study.</td>
               </tr>
               <tr>
                  <th>Study Site Identifier</th>
                  <td>
                     <span style="font-weight:bold"
                           title="A unique identifier for a site within a study.">
                        <a href="https://library.cdisc.org/api/mdr/cdashig/2-1/domains/MH/fields/SITEID">SITEID</a>
                     </span>
                     <br/>Core: HR<br/>Type: Char</td>
                  <td>
                     <span style="font-weight:bold"
                           title="Unique identifier for a site within a study.">
                        <a href="https://library.cdisc.org/api/mdr/sdtmig/3-2/datasets/DM/variables/SITEID">DM.SITEID</a>
                     </span>
                     <br/>Core: Req<br/>Type: Char</td>
                  <td>
                     <span title="A facility in which study activities are conducted.">
                        <a style="font-weight:bold"
                           href="{{site.data.fhir.path}}researchstudy-definitions.html#ResearchStudy.site">ResearchStudy.site</a>
                     </span>
                     <br/>0..* <a href="{{site.data.fhir.path}}references.html">Reference</a>
                  </td>
                  <td>
                     <p>ResearchSubject.where(individual=(AdverseEvent.subject|Condition.subject|AllergyIntolerance.patient|Observation.subject).study.resolve().identifier.value</p>
                     <p>AdverseEvent.extension(workflow-researchstudy).valueReference.resolve().identifier.value</p>
                     <p>Condition.extension(workflow-researchstudy).valueReference.resolve().identifier.value</p>
                     <p>AllergyIntolerance.extension(workflow-researchstudy).valueReference.resolve().identifier.value</p>
                     <p>Observation.extension(workflow-researchstudy).valueReference.resolve().identifier.value</p>
                  </td>
                  <td>Mapping is based on presumption that research subject will be tied to site-specific ResearchStudy, which will then be part of overall ResearchStudy.<br/>
                     <br/>The path using the extension will only exist if the system maintaining the AdverseEvent/Condition/AllergyIntolerance/Observation is aware of its relevance to the Study.</td>
               </tr>
               <tr>
                  <th>Subject Identifier for the Study</th>
                  <td>
                     <span style="font-weight:bold"
                           title="A unique subject identifier within a site and a study.">
                        <a href="https://library.cdisc.org/api/mdr/cdashig/2-1/domains/MH/fields/SUBJID">SUBJID</a>
                     </span>
                     <br/>Core: HR<br/>Type: Char</td>
                  <td>
                     <span style="font-weight:bold"
                           title="Subject identifier, which must be unique within the study. Often the ID of the subject as recorded on a CRF.">
                        <a href="https://library.cdisc.org/api/mdr/sdtmig/3-2/datasets/DM/variables/SUBJID">DM.SUBJID</a>
                     </span>
                     <br/>Core: Req<br/>Type: Char</td>
                  <td>
                     <span title="Identifiers assigned to this research subject for a study.">
                        <a style="font-weight:bold"
                           href="{{site.data.fhir.path}}researchsubject-definitions.html#ResearchSubject.identifier">ResearchSubject.identifier</a>
                     </span>
                     <br/>0..* <a href="{{site.data.fhir.path}}datatypes.html#Identifier">Identifier</a>
                  </td>
                  <td>
                     <p>ResearchSubject.where(individual=(AdverseEvent.subject|Condition.subject|AllergyIntolerance.patient|Observation.subject)).identifer.value</p>
                  </td>
                  <td>Study subject is found by finding the StudySubject that corresponds to the same Patient and ResearchStudy as the focal resource.<br/>
                     <br/>No standard way to decide which subject identifier to use</td>
               </tr>
               <tr>
                  <th>Any Medical History Event</th>
                  <td>
                     <span style="font-weight:bold"
                           title="An indication whether or not there was any medical history to report.">
                        <a href="https://library.cdisc.org/api/mdr/cdashig/2-1/domains/MH/fields/MHYN">MHYN</a>
                     </span>
                     <br/>Core: O<br/>Type: Char</td>
                  <td>
                     <span style="font-weight:bold"/>
                  </td>
                  <td colspan="2" style="background-color:LightGray">If captured, this would be a Questionnaire question.  FHIR almost always has some type of history information.  Will require review to determine if the history is relevant.</td>
                  <td/>
               </tr>
               <tr>
                  <th rowspan="4">Category for Medical History</th>
                  <td rowspan="4">
                     <span style="font-weight:bold"
                           title="A grouping of topic-variable values based on user-defined characteristics.">
                        <a href="https://library.cdisc.org/api/mdr/cdashig/2-1/domains/MH/fields/MHCAT">MHCAT</a>
                     </span>
                     <br/>Core: R/C<br/>Type: Char</td>
                  <td rowspan="4">
                     <span style="font-weight:bold"
                           title="Used to define a category of related records. Examples: CARDIAC or GENERAL">
                        <a href="https://library.cdisc.org/api/mdr/sdtmig/3-2/datasets/MH/variables/MHCAT">MHCAT</a>
                     </span>
                     <br/>Core: Perm<br/>Type: Char</td>
                  <td>
                     <span title="A category assigned to the condition.">
                        <a style="font-weight:bold"
                           href="{{site.data.fhir.path}}condition-definitions.html#Condition.category">Condition.category</a>
                     </span>
                     <br/>0..* <a href="{{site.data.fhir.path}}datatypes.html#CodeableConcept">CodeableConcept</a>
                     <br/>Binding: <a href="http://hl7.org/fhir/ValueSet/condition-category">ConditionCategory</a> 
                     <a href="{{site.data.fhir.path}}terminologies.html#extensible">extensible</a>
                  </td>
                  <td>
                     <p>Condition.category</p>
                  </td>
                  <td rowspan="4">The sponsors does not typically require this information from the sites.<br/>
                     <br/>If needed there are several options to categorize this based on whether something is a Condition/AllergyIntolerance/Observation/etc.  This could also include sub-categorize by diagnosis vs. problem, Allergy vs. intolerance or use Observation.category.  But in general, the mapping to both CAT and SCAT is going to be driven by what types of categories the study requires or needs.</td>
               </tr>
               <tr>
                  <td>
                     <span title="The overall type of event, intended for search and filtering purposes.">
                        <a style="font-weight:bold"
                           href="{{site.data.fhir.path}}adverseevent-definitions.html#AdverseEvent.category">AdverseEvent.category</a>
                     </span>
                     <br/>0..* <a href="{{site.data.fhir.path}}datatypes.html#CodeableConcept">CodeableConcept</a>
                     <br/>Binding: <a href="http://hl7.org/fhir/ValueSet/adverse-event-category">AdverseEventCategory</a> 
                     <a href="{{site.data.fhir.path}}terminologies.html#extensible">extensible</a>
                  </td>
                  <td>
                     <p>AdverseEvent.category</p>
                  </td>
               </tr>
               <tr>
                  <td>
                     <span title="Category of the identified substance.">
                        <a style="font-weight:bold"
                           href="{{site.data.fhir.path}}allergyintolerance-definitions.html#AllergyIntolerance.category">AllergyIntolerance.category</a>
                     </span>
                     <br/>0..* <a href="{{site.data.fhir.path}}datatypes.html#code">code</a>
                     <br/>Binding: <a href="http://hl7.org/fhir/ValueSet/allergy-intolerance-category">AllergyIntoleranceCategory</a> 
                     <a href="{{site.data.fhir.path}}terminologies.html#required">required</a>
                  </td>
                  <td>
                     <p>AllergyIntolerance.category</p>
                  </td>
               </tr>
               <tr>
                  <td>
                     <span title="A code that classifies the general type of observation being made.">
                        <a style="font-weight:bold"
                           href="{{site.data.fhir.path}}observation-definitions.html#Observation.category">Observation.category</a>
                     </span>
                     <br/>0..* <a href="{{site.data.fhir.path}}datatypes.html#CodeableConcept">CodeableConcept</a>
                     <br/>Binding: <a href="http://hl7.org/fhir/ValueSet/observation-category">ObservationCategory</a> 
                     <a href="{{site.data.fhir.path}}terminologies.html#preferred">preferred</a>
                  </td>
                  <td>
                     <p>Observation.category</p>
                  </td>
               </tr>
               <tr>
                  <th rowspan="4">Subcategory for Medical History</th>
                  <td rowspan="4">
                     <span style="font-weight:bold"
                           title="A sub-division of the MHCAT values based on user-defined characteristics.">
                        <a href="https://library.cdisc.org/api/mdr/cdashig/2-1/domains/MH/fields/MHSCAT">MHSCAT</a>
                     </span>
                     <br/>Core: O<br/>Type: Char</td>
                  <td rowspan="4">
                     <span style="font-weight:bold"
                           title="A further categorization of the condition or event.">
                        <a href="https://library.cdisc.org/api/mdr/sdtmig/3-2/datasets/MH/variables/MHSCAT">MHSCAT</a>
                     </span>
                     <br/>Core: Perm<br/>Type: Char</td>
                  <td>
                     <span title="A category assigned to the condition.">
                        <a style="font-weight:bold"
                           href="{{site.data.fhir.path}}condition-definitions.html#Condition.category">Condition.category</a>
                     </span>
                     <br/>0..* <a href="{{site.data.fhir.path}}datatypes.html#CodeableConcept">CodeableConcept</a>
                     <br/>Binding: <a href="http://hl7.org/fhir/ValueSet/condition-category">ConditionCategory</a> 
                     <a href="{{site.data.fhir.path}}terminologies.html#extensible">extensible</a>
                  </td>
                  <td>
                     <p>Condition.category</p>
                  </td>
                  <td rowspan="4">The sponsors does not typically require this information from the sites.<br/>
                     <br/>If needed there are several options to categorize this based on whether something is a Condition/AllergyIntolerance/Observation/etc.  This could also include sub-categorize by diagnosis vs. problem, Allergy vs. intolerance or use Observation.category.  But in general, the mapping to both CAT and SCAT is going to be driven by what types of categories the study requires or needs.</td>
               </tr>
               <tr>
                  <td>
                     <span title="The overall type of event, intended for search and filtering purposes.">
                        <a style="font-weight:bold"
                           href="{{site.data.fhir.path}}adverseevent-definitions.html#AdverseEvent.category">AdverseEvent.category</a>
                     </span>
                     <br/>0..* <a href="{{site.data.fhir.path}}datatypes.html#CodeableConcept">CodeableConcept</a>
                     <br/>Binding: <a href="http://hl7.org/fhir/ValueSet/adverse-event-category">AdverseEventCategory</a> 
                     <a href="{{site.data.fhir.path}}terminologies.html#extensible">extensible</a>
                  </td>
                  <td>
                     <p>AdverseEvent.category</p>
                  </td>
               </tr>
               <tr>
                  <td>
                     <span title="Category of the identified substance.">
                        <a style="font-weight:bold"
                           href="{{site.data.fhir.path}}allergyintolerance-definitions.html#AllergyIntolerance.category">AllergyIntolerance.category</a>
                     </span>
                     <br/>0..* <a href="{{site.data.fhir.path}}datatypes.html#code">code</a>
                     <br/>Binding: <a href="http://hl7.org/fhir/ValueSet/allergy-intolerance-category">AllergyIntoleranceCategory</a> 
                     <a href="{{site.data.fhir.path}}terminologies.html#required">required</a>
                  </td>
                  <td>
                     <p>AllergyIntolerance.category</p>
                  </td>
               </tr>
               <tr>
                  <td>
                     <span title="A code that classifies the general type of observation being made.">
                        <a style="font-weight:bold"
                           href="{{site.data.fhir.path}}observation-definitions.html#Observation.category">Observation.category</a>
                     </span>
                     <br/>0..* <a href="{{site.data.fhir.path}}datatypes.html#CodeableConcept">CodeableConcept</a>
                     <br/>Binding: <a href="http://hl7.org/fhir/ValueSet/observation-category">ObservationCategory</a> 
                     <a href="{{site.data.fhir.path}}terminologies.html#preferred">preferred</a>
                  </td>
                  <td>
                     <p>Observation.category</p>
                  </td>
               </tr>
               <tr>
                  <th rowspan="4">Medical History Collection Date</th>
                  <td rowspan="4">
                     <span style="font-weight:bold"
                           title="The date on which the medical history was collected, represented in an unambiguous date format (e.g., DD-MON-YYYY).">
                        <a href="https://library.cdisc.org/api/mdr/cdashig/2-1/domains/MH/fields/MHDAT">MHDAT</a>
                     </span>
                     <br/>Core: O<br/>Type: Char</td>
                  <td rowspan="4">
                     <span style="font-weight:bold">
                        <a href="https://library.cdisc.org/api/mdr/sdtmig/3-2/datasets/MH/variables/MHDTC">MHDTC</a>
                     </span>
                     <br/>Core: Perm<br/>Type: Char<br/>values: ISO 8601</td>
                  <td>
                     <span title="The recordedDate represents when this particular Condition record was created in the system, which is often a system-generated date.">
                        <a style="font-weight:bold"
                           href="{{site.data.fhir.path}}condition-definitions.html#Condition.recordedDate">Condition.recordedDate</a>
                     </span>
                     <br/>0..1 <a href="{{site.data.fhir.path}}datatypes.html#dateTime">dateTime</a>
                  </td>
                  <td>
                     <p>Condition.recordedDate</p>
                  </td>
                  <td rowspan="4"/>
               </tr>
               <tr>
                  <td>
                     <span title="The date on which the existence of the AdverseEvent was first recorded.">
                        <a style="font-weight:bold"
                           href="{{site.data.fhir.path}}adverseevent-definitions.html#AdverseEvent.recordedDate">AdverseEvent.recordedDate</a>
                     </span>
                     <br/>0..1 <a href="{{site.data.fhir.path}}datatypes.html#dateTime">dateTime</a>
                  </td>
                  <td>
                     <p>AdverseEvent.recordedDate</p>
                  </td>
               </tr>
               <tr>
                  <td>
                     <span title="The recordedDate represents when this particular AllergyIntolerance record was created in the system, which is often a system-generated date.">
                        <a style="font-weight:bold"
                           href="{{site.data.fhir.path}}allergyintolerance-definitions.html#AllergyIntolerance.recordedDate">AllergyIntolerance.recordedDate</a>
                     </span>
                     <br/>0..1 <a href="{{site.data.fhir.path}}datatypes.html#dateTime">dateTime</a>
                  </td>
                  <td>
                     <p>AllergyIntolerance.recordedDate</p>
                  </td>
               </tr>
               <tr>
                  <td>
                     <span title="The time or time-period the observed value is asserted as being true. For biological subjects - e.g. human patients - this is usually called the &#34;physiologically relevant time&#34;. This is usually either the time of the procedure or of specimen collection, but very often the source of the date/time is not known, only the date/time itself.">
                        <a style="font-weight:bold"
                           href="{{site.data.fhir.path}}observation-definitions.html#Observation.effectiveDateTime">Observation.effectiveDateTime</a>
                     </span>
                     <br/>0..1 <a href="{{site.data.fhir.path}}datatypes.html#dateTime">dateTime</a>
                  </td>
                  <td>
                     <p>Observaton.effectiveDateTime</p>
                  </td>
               </tr>
               <tr>
                  <th rowspan="4">MH Sponsor-Defined Identifier</th>
                  <td rowspan="4">
                     <span style="font-weight:bold"
                           title="A sponsor-defined identifier. In CDASH, This is typically used for preprinted or auto-generated numbers on the CRF, or any other type of identifier that does not already have a defined CDASH identifier field.">
                        <a href="https://library.cdisc.org/api/mdr/cdashig/2-1/domains/MH/fields/MHSPID">MHSPID</a>
                     </span>
                     <br/>Core: O<br/>Type: Char</td>
                  <td rowspan="4">
                     <span style="font-weight:bold"
                           title="Sponsor-defined reference number. Perhaps pre-printed on the CRF as an explicit line identifier or defined in the sponsor's operational database. Example: Line number on a Medical History page.">
                        <a href="https://library.cdisc.org/api/mdr/sdtmig/3-2/datasets/MH/variables/MHSPID">MHSPID</a>
                     </span>
                     <br/>Core: Perm<br/>Type: Char</td>
                  <td>
                     <span title="Business identifiers assigned to this condition by the performer or other systems which remain constant as the resource is updated and propagates from server to server.">
                        <a style="font-weight:bold"
                           href="{{site.data.fhir.path}}condition-definitions.html#Condition.identifier">Condition.identifier</a>
                     </span>
                     <br/>0..* <a href="{{site.data.fhir.path}}datatypes.html#Identifier">Identifier</a>
                  </td>
                  <td>
                     <p>Condition.identifier</p>
                  </td>
                  <td rowspan="4">If FHIR IDs are used for RELREC, then the sponsor should evaluate its use case as necessary prior to mapping.</td>
               </tr>
               <tr>
                  <td>
                     <span title="Business identifiers assigned to this adverse event by the performer or other systems which remain constant as the resource is updated and propagates from server to server.">
                        <a style="font-weight:bold"
                           href="{{site.data.fhir.path}}adverseevent-definitions.html#AdverseEvent.identifier">AdverseEvent.identifier</a>
                     </span>
                     <br/>0..1 <a href="{{site.data.fhir.path}}datatypes.html#Identifier">Identifier</a>
                  </td>
                  <td>
                     <p>AdverseEvent.identifier</p>
                  </td>
               </tr>
               <tr>
                  <td>
                     <span title="Business identifiers assigned to this AllergyIntolerance by the performer or other systems which remain constant as the resource is updated and propagates from server to server.">
                        <a style="font-weight:bold"
                           href="{{site.data.fhir.path}}allergyintolerance-definitions.html#AllergyIntolerance.identifier">AllergyIntolerance.identifier</a>
                     </span>
                     <br/>0..* <a href="{{site.data.fhir.path}}datatypes.html#Identifier">Identifier</a>
                  </td>
                  <td>
                     <p>AlergyIntolerance.identifier</p>
                  </td>
               </tr>
               <tr>
                  <td>
                     <span title="A unique identifier assigned to this observation.">
                        <a style="font-weight:bold"
                           href="{{site.data.fhir.path}}observation-definitions.html#Observation.identifier">Observation.identifier</a>
                     </span>
                     <br/>0..* <a href="{{site.data.fhir.path}}datatypes.html#Identifier">Identifier</a>
                  </td>
                  <td>
                     <p>Observation.identifier</p>
                  </td>
               </tr>
               <tr>
                  <th>Medical History Event Date Type</th>
                  <td>
                     <span style="font-weight:bold"
                           title="Specifies the aspect of the medical condition or event by which MHSTDTC and/or the MHENDTC is defined.">
                        <a href="https://library.cdisc.org/api/mdr/cdashig/2-1/domains/MH/fields/MHEVDTYP">MHEVDTYP</a>
                     </span>
                     <br/>Core: O<br/>Type: Char</td>
                  <td>
                     <span style="font-weight:bold">SUPPMH.QVAL</span>
                  </td>
                  <td/>
               </tr>
               <tr>
                  <th rowspan="4">Reported Term for the Medical History</th>
                  <td rowspan="4">
                     <span style="font-weight:bold"
                           title="The reported or prespecified name of the medical condition or event.">
                        <a href="https://library.cdisc.org/api/mdr/cdashig/2-1/domains/MH/fields/MHTERM">MHTERM</a>
                     </span>
                     <br/>Core: HR<br/>Type: Char</td>
                  <td rowspan="4">
                     <span style="font-weight:bold"
                           title="Verbatim or preprinted CRF term for the medical condition or event.">
                        <a href="https://library.cdisc.org/api/mdr/sdtmig/3-2/datasets/MH/variables/MHTERM">MHTERM</a>
                     </span>
                     <br/>Core: Req<br/>Type: Char</td>
                  <td>
                     <span title="Identification of the condition, problem or diagnosis.">
                        <a style="font-weight:bold"
                           href="{{site.data.fhir.path}}condition-definitions.html#Condition.code">Condition.code</a>
                     </span>
                     <br/>0..1 <a href="{{site.data.fhir.path}}datatypes.html#CodeableConcept">CodeableConcept</a>
                     <br/>Binding: <a href="http://hl7.org/fhir/ValueSet/condition-code">ConditionKind</a> 
                     <a href="{{site.data.fhir.path}}terminologies.html#example">example</a>
                  </td>
                  <td>
                     <p>Condition.code</p>
                  </td>
                  <td rowspan="4"/>
               </tr>
               <tr>
                  <td>
                     <span title="This element defines the specific type of event that occurred or that was prevented from occurring.">
                        <a style="font-weight:bold"
                           href="{{site.data.fhir.path}}adverseevent-definitions.html#AdverseEvent.event">AdverseEvent.event</a>
                     </span>
                     <br/>0..1 <a href="{{site.data.fhir.path}}datatypes.html#CodeableConcept">CodeableConcept</a>
                     <br/>Binding: <a href="http://hl7.org/fhir/ValueSet/adverse-event-type">AdverseEventType</a> 
                     <a href="{{site.data.fhir.path}}terminologies.html#example">example</a>
                  </td>
                  <td>
                     <p>AdverseEvent.event</p>
                  </td>
               </tr>
               <tr>
                  <td>
                     <span title="Code for an allergy or intolerance statement (either a positive or a negated/excluded statement).  This may be a code for a substance or pharmaceutical product that is considered to be responsible for the adverse reaction risk (e.g., &#34;Latex&#34;), an allergy or intolerance condition (e.g., &#34;Latex allergy&#34;), or a negated/excluded code for a specific substance or class (e.g., &#34;No latex allergy&#34;) or a general or categorical negated statement (e.g.,  &#34;No known allergy&#34;, &#34;No known drug allergies&#34;).  Note: the substance for a specific reaction may be different from the substance identified as the cause of the risk, but it must be consistent with it. For instance, it may be a more specific substance (e.g. a brand medication) or a composite product that includes the identified substance. It must be clinically safe to only process the 'code' and ignore the 'reaction.substance'.  If a receiving system is unable to confirm that AllergyIntolerance.reaction.substance falls within the semantic scope of AllergyIntolerance.code, then the receiving system should ignore AllergyIntolerance.reaction.substance.">
                        <a style="font-weight:bold"
                           href="{{site.data.fhir.path}}allergyintolerance-definitions.html#AllergyIntolerance.code">AllergyIntolerance.code</a>
                     </span>
                     <br/>0..1 <a href="{{site.data.fhir.path}}datatypes.html#CodeableConcept">CodeableConcept</a>
                     <br/>Binding: <a href="http://hl7.org/fhir/ValueSet/allergyintolerance-code">AllergyIntoleranceCode</a> 
                     <a href="{{site.data.fhir.path}}terminologies.html#example">example</a>
                  </td>
                  <td>
                     <p>AllergyIntolerance.code</p>
                  </td>
               </tr>
               <tr>
                  <td>
                     <span title="Describes what was observed. Sometimes this is called the observation &#34;name&#34;.">
                        <a style="font-weight:bold"
                           href="{{site.data.fhir.path}}observation-definitions.html#Observation.code">Observation.code</a>
                     </span>
                     <br/>1..1 <a href="{{site.data.fhir.path}}datatypes.html#CodeableConcept">CodeableConcept</a>
                     <br/>Binding: <a href="http://hl7.org/fhir/ValueSet/observation-codes">ObservationCode</a> 
                     <a href="{{site.data.fhir.path}}terminologies.html#example">example</a>
                  </td>
                  <td>
                     <p>Observation.code</p>
                  </td>
               </tr>
               <tr>
                  <th rowspan="3">Medical History Occurrence</th>
                  <td rowspan="3">
                     <span style="font-weight:bold"
                           title="An indication whether a prespecified medical condition/event or a group of medical conditions/events occurred when information about the occurrence of a specific event is solicited.">
                        <a href="https://library.cdisc.org/api/mdr/cdashig/2-1/domains/MH/fields/MHOCCUR">MHOCCUR</a>
                     </span>
                     <br/>Core: O<br/>Type: Char</td>
                  <td rowspan="3">
                     <span style="font-weight:bold"
                           title="Used when the occurrence of specific medical history conditions is solicited to indicate whether or not (Y/N) a medical condition (MHTERM) had ever occurred. Values are null for spontaneously reported events.">
                        <a href="https://library.cdisc.org/api/mdr/sdtmig/3-2/datasets/MH/variables/MHOCCUR">MHOCCUR</a>
                     </span>
                     <br/>Core: Perm<br/>Type: Char</td>
                  <td>
                     <span title="The verification status to support the clinical status of the condition.">
                        <a style="font-weight:bold"
                           href="{{site.data.fhir.path}}condition-definitions.html#Condition.verificationStatus">Condition.verificationStatus</a>
                     </span>
                     <br/>0..1 <a href="{{site.data.fhir.path}}datatypes.html#CodeableConcept">CodeableConcept</a> con-3, con-5<br/>Binding: <a href="http://hl7.org/fhir/ValueSet/condition-ver-status">ConditionVerificationStatus</a> 
                     <a href="{{site.data.fhir.path}}terminologies.html#required">required</a>
                  </td>
                  <td>
                     <p>Condition.verificationStatus.where(%this IN {'refuted'|'entered-in-error'})</p>
                  </td>
                  <td rowspan="3">In general in FHIR, records of the absence of Conditions are not normally captured.  If the information revolves around "has the patient had X", that would be accomplished through a Questionnaire.Response</td>
               </tr>
               <tr>
                  <td>
                     <span title="Assertion about certainty associated with the propensity, or potential risk, of a reaction to the identified substance (including pharmaceutical product).">
                        <a style="font-weight:bold"
                           href="{{site.data.fhir.path}}allergyintolerance-definitions.html#AllergyIntolerance.verificationStatus">AllergyIntolerance.verificationStatus</a>
                     </span>
                     <br/>0..1 <a href="{{site.data.fhir.path}}datatypes.html#CodeableConcept">CodeableConcept</a> ait-1, ait-2<br/>Binding: <a href="http://hl7.org/fhir/ValueSet/allergyintolerance-verification">AllergyIntoleranceVerificationStatus</a> 
                     <a href="{{site.data.fhir.path}}terminologies.html#required">required</a>
                  </td>
                  <td>
                     <p>(AllergyIntolerance.verificationStatus in {'unconfirmed'|'confirmed'|'refuted'|'entered-in-error'}).not()</p>
                  </td>
               </tr>
               <tr>
                  <td>
                     <span title="The time or time-period the observed value is asserted as being true. For biological subjects - e.g. human patients - this is usually called the &#34;physiologically relevant time&#34;. This is usually either the time of the procedure or of specimen collection, but very often the source of the date/time is not known, only the date/time itself.">
                        <a style="font-weight:bold"
                           href="{{site.data.fhir.path}}observation-definitions.html#Observation.effectiveDateTime">Observation.effectiveDateTime</a>
                     </span>
                     <br/>0..1 <a href="{{site.data.fhir.path}}datatypes.html#dateTime">dateTime</a>
                  </td>
                  <td>
                     <p>Observation.effectiveDateTime</p>
                  </td>
               </tr>
               <tr>
                  <th>Medical History Event prespecified</th>
                  <td>
                     <span style="font-weight:bold"
                           title="An indication that a specific event, or group of events, are prespecified on a CRF.">
                        <a href="https://library.cdisc.org/api/mdr/cdashig/2-1/domains/MH/fields/MHPRESP">MHPRESP</a>
                     </span>
                     <br/>Core: O<br/>Type: Char</td>
                  <td>
                     <span style="font-weight:bold"
                           title="A value of &#34;Y&#34; indicates that this medical history event was pre-specified on the CRF. Values are null for spontaneously reported events (i.e., those collected as free-text verbatim terms)">
                        <a href="https://library.cdisc.org/api/mdr/sdtmig/3-2/datasets/MH/variables/MHPRESP">MHPRESP</a>
                     </span>
                     <br/>Core: Perm<br/>Type: Char</td>
                  <td colspan="2" style="background-color:LightGray">Not expect to receive these from the site.  How this is populated in the sponsor's database would be up to the sponsor. If available, this would need to be an extension.  The notion of pre-specified is part of the questionnaire</td>
                  <td/>
               </tr>
               <tr>
                  <th>Prior Medical History Event</th>
                  <td>
                     <span style="font-weight:bold"
                           title="An indication whether the event occurred prior to study start.">
                        <a href="https://library.cdisc.org/api/mdr/cdashig/2-1/domains/MH/fields/MHPRIOR">MHPRIOR</a>
                     </span>
                     <br/>Core: O<br/>Type: Char</td>
                  <td>
                     <span style="font-weight:bold">MHSTRTPT*</span>
                     <span style="font-weight:bold">MHSTRF*</span>
                  </td>
                  <td colspan="2" style="background-color:LightGray">This can be determined from either the onsetDateTime and/or the abatementDateTime.  If it were to be flagged on the record, it would need to be an extension on the extension that links to the study.<br/>
                     <br/>The sponsor may determine this, based on an anchor point in the protocol.</td>
                  <td/>
               </tr>
               <tr>
                  <th rowspan="2">Ongoing Medical History Event</th>
                  <td rowspan="2">
                     <span style="font-weight:bold"
                           title="Indication the medical condition or event is ongoing when no end date is provided.">
                        <a href="https://library.cdisc.org/api/mdr/cdashig/2-1/domains/MH/fields/MHONGO">MHONGO</a>
                     </span>
                     <br/>Core: O<br/>Type: Char</td>
                  <td rowspan="2">
                     <span style="font-weight:bold"
                           title="Describes the end of the event relative to the sponsor-defined reference period. The sponsor-defined reference period is a continuous period of time defined by a discrete starting point and a discrete ending point (represented by RFSTDTC and RFENDTC in Demographics)">
                        <a href="https://library.cdisc.org/api/mdr/sdtmig/3-2/datasets/MH/variables/MHENRF">MHENRF</a>
                     </span>
                     <br/>Core: Perm<br/>Type: Char<span style="font-weight:bold"
                           title="Identifies the end of the event as being before or after the reference time point defined by variable MHENTPT.">
                        <a href="https://library.cdisc.org/api/mdr/sdtmig/3-2/datasets/MH/variables/MHENRTPT">MHENRTPT</a>
                     </span>
                     <br/>Core: Perm<br/>Type: Char<br/>values: AFTER, BEFORE, COINCIDENT, ONGOING, U</td>
                  <td>
                     <span title="The clinical status of the condition.">
                        <a style="font-weight:bold"
                           href="{{site.data.fhir.path}}condition-definitions.html#Condition.clinicalStatus">Condition.clinicalStatus</a>
                     </span>
                     <br/>0..1 <a href="{{site.data.fhir.path}}datatypes.html#CodeableConcept">CodeableConcept</a> con-3, con-4, con-5<br/>Binding: <a href="http://hl7.org/fhir/ValueSet/condition-clinical">ConditionClinicalStatus</a> 
                     <a href="{{site.data.fhir.path}}terminologies.html#required">required</a>
                  </td>
                  <td>
                     <p>Condition.clinicalStatus</p>
                  </td>
                  <td rowspan="2"/>
               </tr>
               <tr>
                  <td>
                     <span title="Describes the type of outcome from the adverse event.">
                        <a style="font-weight:bold"
                           href="{{site.data.fhir.path}}adverseevent-definitions.html#AdverseEvent.outcome">AdverseEvent.outcome</a>
                     </span>
                     <br/>0..1 <a href="{{site.data.fhir.path}}datatypes.html#CodeableConcept">CodeableConcept</a>
                     <br/>Binding: <a href="http://hl7.org/fhir/ValueSet/adverse-event-outcome">AdverseEventOutcome</a> 
                     <a href="{{site.data.fhir.path}}terminologies.html#required">required</a>
                  </td>
                  <td>
                     <p>AdverseEvent.outcome</p>
                  </td>
               </tr>
               <tr>
                  <th rowspan="4">Medical History Event Start Date</th>
                  <td rowspan="4">
                     <span style="font-weight:bold"
                           title="The start date of medical history event or condition represented in an unambiguous date format (e.g., DD-MON-YYYY).">
                        <a href="https://library.cdisc.org/api/mdr/cdashig/2-1/domains/MH/fields/MHSTDAT">MHSTDAT</a>
                     </span>
                     <br/>Core: O<br/>Type: Char</td>
                  <td rowspan="4">
                     <span style="font-weight:bold">
                        <a href="https://library.cdisc.org/api/mdr/sdtmig/3-2/datasets/MH/variables/MHSTDTC">MHSTDTC</a>
                     </span>
                     <br/>Core: Perm<br/>Type: Char<br/>values: ISO 8601</td>
                  <td>
                     <span title="Estimated or actual date or date-time  the condition began, in the opinion of the clinician.">
                        <a style="font-weight:bold"
                           href="{{site.data.fhir.path}}condition-definitions.html#Condition.onsetDateTime">Condition.onsetDateTime</a>
                     </span>
                     <br/>0..1 <a href="{{site.data.fhir.path}}datatypes.html#dateTime">dateTime</a>
                  </td>
                  <td>
                     <p>Condition.onset.onsetDateTime</p>
                  </td>
                  <td rowspan="4"/>
               </tr>
               <tr>
                  <td>
                     <span title="The date (and perhaps time) when the adverse event occurred.">
                        <a style="font-weight:bold"
                           href="{{site.data.fhir.path}}adverseevent-definitions.html#AdverseEvent.date">AdverseEvent.date</a>
                     </span>
                     <br/>0..1 <a href="{{site.data.fhir.path}}datatypes.html#dateTime">dateTime</a>
                  </td>
                  <td>
                     <p>AdverseEvent.date</p>
                  </td>
               </tr>
               <tr>
                  <td>
                     <span title="Estimated or actual date,  date-time, or age when allergy or intolerance was identified.">
                        <a style="font-weight:bold"
                           href="{{site.data.fhir.path}}allergyintolerance-definitions.html#AllergyIntolerance.onsetDateTime">AllergyIntolerance.onsetDateTime</a>
                     </span>
                     <br/>0..1 <a href="{{site.data.fhir.path}}datatypes.html#dateTime">dateTime</a>
                  </td>
                  <td>
                     <p>AllergyIntolerance.onsetDateTime</p>
                  </td>
               </tr>
               <tr>
                  <td>
                     <span title="The time or time-period the observed value is asserted as being true. For biological subjects - e.g. human patients - this is usually called the &#34;physiologically relevant time&#34;. This is usually either the time of the procedure or of specimen collection, but very often the source of the date/time is not known, only the date/time itself.">
                        <a style="font-weight:bold"
                           href="{{site.data.fhir.path}}observation-definitions.html#Observation.effectiveDateTime">Observation.effectiveDateTime</a>
                     </span>
                     <br/>0..1 <a href="{{site.data.fhir.path}}datatypes.html#dateTime">dateTime</a>
                  </td>
                  <td>
                     <p>Observation.effectiveDateTime</p>
                  </td>
               </tr>
               <tr>
                  <th>Medical History Event End Date</th>
                  <td>
                     <span style="font-weight:bold"
                           title="The end date of medical history event or condition represented in an unambiguous date format (e.g., DD-MON-YYYY).">
                        <a href="https://library.cdisc.org/api/mdr/cdashig/2-1/domains/MH/fields/MHENDAT">MHENDAT</a>
                     </span>
                     <br/>Core: O<br/>Type: Char</td>
                  <td>
                     <span style="font-weight:bold">
                        <a href="https://library.cdisc.org/api/mdr/sdtmig/3-2/datasets/MH/variables/MHENDTC">MHENDTC</a>
                     </span>
                     <br/>Core: Perm<br/>Type: Char<br/>values: ISO 8601</td>
                  <td>
                     <span title="The date or estimated date that the condition resolved or went into remission. This is called &#34;abatement&#34; because of the many overloaded connotations associated with &#34;remission&#34; or &#34;resolution&#34; - Conditions are never really resolved, but they can abate.">
                        <a style="font-weight:bold"
                           href="{{site.data.fhir.path}}condition-definitions.html#Condition.abatementDateTime">Condition.abatementDateTime</a>
                     </span>
                     <br/>0..1 <a href="{{site.data.fhir.path}}datatypes.html#dateTime">dateTime</a> con-4</td>
                  <td>
                     <p>Condition.abatementDateTime</p>
                  </td>
                  <td/>
               </tr>
               <tr>
                  <th rowspan="4">Medical History Event Location</th>
                  <td rowspan="4">
                     <span style="font-weight:bold"
                           title="A description of the anatomical location relevant for the medical condition or event.">
                        <a href="https://library.cdisc.org/api/mdr/cdashig/2-1/domains/MH/fields/MHLOC">MHLOC</a>
                     </span>
                     <br/>Core: O<br/>Type: Char</td>
                  <td rowspan="4">
                     <span style="font-weight:bold">MHLOC*</span>
                  </td>
                  <td>
                     <span title="The anatomical location where this condition manifests itself.">
                        <a style="font-weight:bold"
                           href="{{site.data.fhir.path}}condition-definitions.html#Condition.bodySite">Condition.bodySite</a>
                     </span>
                     <br/>0..* <a href="{{site.data.fhir.path}}datatypes.html#CodeableConcept">CodeableConcept</a>
                     <br/>Binding: <a href="http://hl7.org/fhir/ValueSet/body-site">BodySite</a> 
                     <a href="{{site.data.fhir.path}}terminologies.html#example">example</a>
                  </td>
                  <td>
                     <p>Condition.bodysite</p>
                  </td>
                  <td rowspan="4"/>
               </tr>
               <tr>
                  <td>
                     <span title="The anatomical location where this condition manifests itself.">
                        <a style="font-weight:bold"
                           href="{{site.data.fhir.path}}condition-definitions.html#Condition.bodySite">Condition.bodySite</a>
                     </span>
                     <br/>0..* <a href="{{site.data.fhir.path}}datatypes.html#CodeableConcept">CodeableConcept</a>
                     <br/>Binding: <a href="http://hl7.org/fhir/ValueSet/body-site">BodySite</a> 
                     <a href="{{site.data.fhir.path}}terminologies.html#example">example</a>
                  </td>
                  <td>
                     <p>AdverseEvent.resultingCondition.resolve().bodySite</p>
                  </td>
               </tr>
               <tr>
                  <td>
                     <span title="Indicates the site on the subject's body where the observation was made (i.e. the target site).">
                        <a style="font-weight:bold"
                           href="{{site.data.fhir.path}}observation-definitions.html#Observation.bodySite">Observation.bodySite</a>
                     </span>
                     <br/>0..1 <a href="{{site.data.fhir.path}}datatypes.html#CodeableConcept">CodeableConcept</a>
                     <br/>Binding: <a href="http://hl7.org/fhir/ValueSet/body-site">BodySite</a> 
                     <a href="{{site.data.fhir.path}}terminologies.html#example">example</a>
                  </td>
                  <td>
                     <p>Observation.bodySite</p>
                     <p>Observation.specimen.resolve().collection.bodySite</p>
                  </td>
               </tr>
               <tr>
                  <td>
                     <span title="Anatomical location from which the specimen was collected (if subject is a patient). This is the target site.  This element is not used for environmental specimens.">
                        <a style="font-weight:bold"
                           href="{{site.data.fhir.path}}specimen-definitions.html#Specimen.collection.bodySite">Specimen.collection.bodySite</a>
                     </span>
                     <br/>0..1 <a href="{{site.data.fhir.path}}datatypes.html#CodeableConcept">CodeableConcept</a>
                     <br/>Binding: <a href="http://hl7.org/fhir/ValueSet/body-site">BodySite</a> 
                     <a href="{{site.data.fhir.path}}terminologies.html#example">example</a>
                  </td>
                  <td>
                     <p>Observation.bodySite</p>
                     <p>Observation.specimen.resolve().collection.bodySite</p>
                  </td>
               </tr>
               <tr>
                  <th>Medical History Event Laterality</th>
                  <td>
                     <span style="font-weight:bold"
                           title="Qualifier for anatomical location further detailing the side of the body relevant for the event.">
                        <a href="https://library.cdisc.org/api/mdr/cdashig/2-1/domains/MH/fields/MHLAT">MHLAT</a>
                     </span>
                     <br/>Core: O<br/>Type: Char</td>
                  <td>
                     <span style="font-weight:bold">MHLAT*</span>
                  </td>
                  <td colspan="2" style="background-color:LightGray">There should be a standard extension defined that allows Condition, AdverseEvent, Observation and Specimen to point to a BodyStructure.  Laterality is not relevant for allergies.</td>
                  <td/>
               </tr>
               <tr>
                  <th>Medical History Directionality</th>
                  <td>
                     <span style="font-weight:bold"
                           title="Qualifier further detailing the position of the anatomical location relative to the center of the body, organ, or specimen.">
                        <a href="https://library.cdisc.org/api/mdr/cdashig/2-1/domains/MH/fields/MHDIR">MHDIR</a>
                     </span>
                     <br/>Core: O<br/>Type: Char</td>
                  <td>
                     <span style="font-weight:bold">MHDIR*</span>
                  </td>
                  <td colspan="2" style="background-color:LightGray">There should be a standard extension defined that allows Condition, AdverseEvent, Observation and Specimen to point to a BodyStructure.  Directionality is not relevant for allergies.</td>
                  <td/>
               </tr>
               <tr>
                  <th>MH Event Location Portion or Totality</th>
                  <td>
                     <span style="font-weight:bold"
                           title="Qualifier for anatomical location further detailing the distribution, which means arrangement of, apportioning of.">
                        <a href="https://library.cdisc.org/api/mdr/cdashig/2-1/domains/MH/fields/MHPORTOT">MHPORTOT</a>
                     </span>
                     <br/>Core: O<br/>Type: Char</td>
                  <td>
                     <span style="font-weight:bold">MHPORTOT*</span>
                  </td>
                  <td colspan="2" style="background-color:LightGray">This would likely be an extension on Condition.  It is not relevant for the other resources</td>
                  <td/>
               </tr>
               <tr>
                  <th>MH Modified Reported Term</th>
                  <td>
                     <span style="font-weight:bold"
                           title="If the value for MHTERM is modified to facilitate coding, then MHMODIFY will contain the modified text.">
                        <a href="https://library.cdisc.org/api/mdr/cdashig/2-1/domains/MH/fields/MHMODIFY">MHMODIFY</a>
                     </span>
                     <br/>Core: O<br/>Type: Char</td>
                  <td>
                     <span style="font-weight:bold"
                           title="If MHTERM is modified to facilitate coding, then MHMODIFY will contain the modified text.">
                        <a href="https://library.cdisc.org/api/mdr/sdtmig/3-2/datasets/MH/variables/MHMODIFY">MHMODIFY</a>
                     </span>
                     <br/>Core: Perm<br/>Type: Char</td>
                  <td>In most cases, no MedDRA codes will be present in source data and all coding levels and displays will be added by the sponsor.  However, FHIR allows multiple codings and therefore all of these codes *can* be conveyed in FHIR if the data source chooses to capture them.  Standard code system URLs should be defined for each of the MedDRA levels.  If MedDRA is considered a single code system, then the consumer will be responsible for distinguishing which codes represent which levels by looking up the received code.</td>
               </tr>
               <tr>
                  <th rowspan="4">MH Dictionary-Derived Term</th>
                  <td rowspan="4">
                     <span style="font-weight:bold"
                           title="The dictionary text description of MHTERM or the modified topic variable (MH MODIFY), if applicable.">
                        <a href="https://library.cdisc.org/api/mdr/cdashig/2-1/domains/MH/fields/MHDECOD">MHDECOD</a>
                     </span>
                     <br/>Core: O<br/>Type: Char</td>
                  <td rowspan="4">
                     <span style="font-weight:bold"
                           title="Dictionary-derived text description of MHTERM or MHMODIFY. Equivalent to the Preferred Term (PT in MedDRA). The sponsor is expected to provide the dictionary name and version used to map the terms utilizing the define.xml external codelist attributes.">
                        <a href="https://library.cdisc.org/api/mdr/sdtmig/3-2/datasets/MH/variables/MHDECOD">MHDECOD</a>
                     </span>
                     <br/>Core: Perm<br/>Type: Char</td>
                  <td>
                     <span title="Identification of the condition, problem or diagnosis.">
                        <a style="font-weight:bold"
                           href="{{site.data.fhir.path}}condition-definitions.html#Condition.code">Condition.code</a>
                     </span>
                     <br/>0..1 <a href="{{site.data.fhir.path}}datatypes.html#CodeableConcept">CodeableConcept</a>
                     <br/>Binding: <a href="http://hl7.org/fhir/ValueSet/condition-code">ConditionKind</a> 
                     <a href="{{site.data.fhir.path}}terminologies.html#example">example</a>
                  </td>
                  <td>
                     <p>Condition.code.coding.where(system=%MHDECOD).code</p>
                  </td>
                  <td rowspan="4">In most cases, no MedDRA codes will be present in source data and all coding levels and displays will be added by the sponsor.  However, FHIR allows multiple codings and therefore all of these codes *can* be conveyed in FHIR if the data source chooses to capture them.  Standard code system URLs should be defined for each of the MedDRA levels.  If MedDRA is considered a single code system, then the consumer will be responsible for distinguishing which codes represent which levels by looking up the received code.</td>
               </tr>
               <tr>
                  <td>
                     <span title="This element defines the specific type of event that occurred or that was prevented from occurring.">
                        <a style="font-weight:bold"
                           href="{{site.data.fhir.path}}adverseevent-definitions.html#AdverseEvent.event">AdverseEvent.event</a>
                     </span>
                     <br/>0..1 <a href="{{site.data.fhir.path}}datatypes.html#CodeableConcept">CodeableConcept</a>
                     <br/>Binding: <a href="http://hl7.org/fhir/ValueSet/adverse-event-type">AdverseEventType</a> 
                     <a href="{{site.data.fhir.path}}terminologies.html#example">example</a>
                  </td>
                  <td>
                     <p>AdverseEvent.event.coding.where(system=%MHDECOD).code</p>
                  </td>
               </tr>
               <tr>
                  <td>
                     <span title="Code for an allergy or intolerance statement (either a positive or a negated/excluded statement).  This may be a code for a substance or pharmaceutical product that is considered to be responsible for the adverse reaction risk (e.g., &#34;Latex&#34;), an allergy or intolerance condition (e.g., &#34;Latex allergy&#34;), or a negated/excluded code for a specific substance or class (e.g., &#34;No latex allergy&#34;) or a general or categorical negated statement (e.g.,  &#34;No known allergy&#34;, &#34;No known drug allergies&#34;).  Note: the substance for a specific reaction may be different from the substance identified as the cause of the risk, but it must be consistent with it. For instance, it may be a more specific substance (e.g. a brand medication) or a composite product that includes the identified substance. It must be clinically safe to only process the 'code' and ignore the 'reaction.substance'.  If a receiving system is unable to confirm that AllergyIntolerance.reaction.substance falls within the semantic scope of AllergyIntolerance.code, then the receiving system should ignore AllergyIntolerance.reaction.substance.">
                        <a style="font-weight:bold"
                           href="{{site.data.fhir.path}}allergyintolerance-definitions.html#AllergyIntolerance.code">AllergyIntolerance.code</a>
                     </span>
                     <br/>0..1 <a href="{{site.data.fhir.path}}datatypes.html#CodeableConcept">CodeableConcept</a>
                     <br/>Binding: <a href="http://hl7.org/fhir/ValueSet/allergyintolerance-code">AllergyIntoleranceCode</a> 
                     <a href="{{site.data.fhir.path}}terminologies.html#example">example</a>
                  </td>
                  <td>
                     <p>AllergyIntolerance.code.coding.where(system=%MHDECOD).code</p>
                  </td>
               </tr>
               <tr>
                  <td>
                     <span title="Describes what was observed. Sometimes this is called the observation &#34;name&#34;.">
                        <a style="font-weight:bold"
                           href="{{site.data.fhir.path}}observation-definitions.html#Observation.code">Observation.code</a>
                     </span>
                     <br/>1..1 <a href="{{site.data.fhir.path}}datatypes.html#CodeableConcept">CodeableConcept</a>
                     <br/>Binding: <a href="http://hl7.org/fhir/ValueSet/observation-codes">ObservationCode</a> 
                     <a href="{{site.data.fhir.path}}terminologies.html#example">example</a>
                  </td>
                  <td>
                     <p>Observation.code.coding.where(system=%MHDECOD).code</p>
                  </td>
               </tr>
               <tr>
                  <th rowspan="4">Medical History Event Lowest Level Term</th>
                  <td rowspan="4">
                     <span style="font-weight:bold"
                           title="MedDRA Dictionary text description of the Lowest Level Term.">
                        <a href="https://library.cdisc.org/api/mdr/cdashig/2-1/domains/MH/fields/MHLLT">MHLLT</a>
                     </span>
                     <br/>Core: O<br/>Type: Char</td>
                  <td rowspan="4">
                     <span style="font-weight:bold">MHLLT*</span>
                  </td>
                  <td>
                     <span title="Identification of the condition, problem or diagnosis.">
                        <a style="font-weight:bold"
                           href="{{site.data.fhir.path}}condition-definitions.html#Condition.code">Condition.code</a>
                     </span>
                     <br/>0..1 <a href="{{site.data.fhir.path}}datatypes.html#CodeableConcept">CodeableConcept</a>
                     <br/>Binding: <a href="http://hl7.org/fhir/ValueSet/condition-code">ConditionKind</a> 
                     <a href="{{site.data.fhir.path}}terminologies.html#example">example</a>
                  </td>
                  <td>
                     <p>Condition.code.coding.where(system=%MHLLT).display</p>
                  </td>
                  <td rowspan="4">In most cases, no MedDRA codes will be present in source data and all coding levels and displays will be added by the sponsor.  However, FHIR allows multiple codings and therefore all of these codes *can* be conveyed in FHIR if the data source chooses to capture them.  Standard code system URLs should be defined for each of the MedDRA levels.  If MedDRA is considered a single code system, then the consumer will be responsible for distinguishing which codes represent which levels by looking up the received code.</td>
               </tr>
               <tr>
                  <td>
                     <span title="This element defines the specific type of event that occurred or that was prevented from occurring.">
                        <a style="font-weight:bold"
                           href="{{site.data.fhir.path}}adverseevent-definitions.html#AdverseEvent.event">AdverseEvent.event</a>
                     </span>
                     <br/>0..1 <a href="{{site.data.fhir.path}}datatypes.html#CodeableConcept">CodeableConcept</a>
                     <br/>Binding: <a href="http://hl7.org/fhir/ValueSet/adverse-event-type">AdverseEventType</a> 
                     <a href="{{site.data.fhir.path}}terminologies.html#example">example</a>
                  </td>
                  <td>
                     <p>AdverseEvent.event.coding.where(system=%MHLLT).display</p>
                  </td>
               </tr>
               <tr>
                  <td>
                     <span title="Code for an allergy or intolerance statement (either a positive or a negated/excluded statement).  This may be a code for a substance or pharmaceutical product that is considered to be responsible for the adverse reaction risk (e.g., &#34;Latex&#34;), an allergy or intolerance condition (e.g., &#34;Latex allergy&#34;), or a negated/excluded code for a specific substance or class (e.g., &#34;No latex allergy&#34;) or a general or categorical negated statement (e.g.,  &#34;No known allergy&#34;, &#34;No known drug allergies&#34;).  Note: the substance for a specific reaction may be different from the substance identified as the cause of the risk, but it must be consistent with it. For instance, it may be a more specific substance (e.g. a brand medication) or a composite product that includes the identified substance. It must be clinically safe to only process the 'code' and ignore the 'reaction.substance'.  If a receiving system is unable to confirm that AllergyIntolerance.reaction.substance falls within the semantic scope of AllergyIntolerance.code, then the receiving system should ignore AllergyIntolerance.reaction.substance.">
                        <a style="font-weight:bold"
                           href="{{site.data.fhir.path}}allergyintolerance-definitions.html#AllergyIntolerance.code">AllergyIntolerance.code</a>
                     </span>
                     <br/>0..1 <a href="{{site.data.fhir.path}}datatypes.html#CodeableConcept">CodeableConcept</a>
                     <br/>Binding: <a href="http://hl7.org/fhir/ValueSet/allergyintolerance-code">AllergyIntoleranceCode</a> 
                     <a href="{{site.data.fhir.path}}terminologies.html#example">example</a>
                  </td>
                  <td>
                     <p>AllergyIntolerance.code.coding.where(system=%MHLLT).display</p>
                  </td>
               </tr>
               <tr>
                  <td>
                     <span title="Describes what was observed. Sometimes this is called the observation &#34;name&#34;.">
                        <a style="font-weight:bold"
                           href="{{site.data.fhir.path}}observation-definitions.html#Observation.code">Observation.code</a>
                     </span>
                     <br/>1..1 <a href="{{site.data.fhir.path}}datatypes.html#CodeableConcept">CodeableConcept</a>
                     <br/>Binding: <a href="http://hl7.org/fhir/ValueSet/observation-codes">ObservationCode</a> 
                     <a href="{{site.data.fhir.path}}terminologies.html#example">example</a>
                  </td>
                  <td>
                     <p>Observation.code.coding.where(system=%MHLLT).display</p>
                  </td>
               </tr>
               <tr>
                  <th rowspan="4">MH Event Lowest Level Term Code</th>
                  <td rowspan="4">
                     <span style="font-weight:bold" title="MedDRA Lowest Level Term code.">
                        <a href="https://library.cdisc.org/api/mdr/cdashig/2-1/domains/MH/fields/MHLLTCD">MHLLTCD</a>
                     </span>
                     <br/>Core: O<br/>Type: Num</td>
                  <td rowspan="4">
                     <span style="font-weight:bold">MHLLTCD*</span>
                  </td>
                  <td>
                     <span title="Identification of the condition, problem or diagnosis.">
                        <a style="font-weight:bold"
                           href="{{site.data.fhir.path}}condition-definitions.html#Condition.code">Condition.code</a>
                     </span>
                     <br/>0..1 <a href="{{site.data.fhir.path}}datatypes.html#CodeableConcept">CodeableConcept</a>
                     <br/>Binding: <a href="http://hl7.org/fhir/ValueSet/condition-code">ConditionKind</a> 
                     <a href="{{site.data.fhir.path}}terminologies.html#example">example</a>
                  </td>
                  <td>
                     <p>Condition.code.coding.where(system=%MHLLT).code</p>
                  </td>
                  <td rowspan="4">In most cases, no MedDRA codes will be present in source data and all coding levels and displays will be added by the sponsor.  However, FHIR allows multiple codings and therefore all of these codes *can* be conveyed in FHIR if the data source chooses to capture them.  Standard code system URLs should be defined for each of the MedDRA levels.  If MedDRA is considered a single code system, then the consumer will be responsible for distinguishing which codes represent which levels by looking up the received code.</td>
               </tr>
               <tr>
                  <td>
                     <span title="This element defines the specific type of event that occurred or that was prevented from occurring.">
                        <a style="font-weight:bold"
                           href="{{site.data.fhir.path}}adverseevent-definitions.html#AdverseEvent.event">AdverseEvent.event</a>
                     </span>
                     <br/>0..1 <a href="{{site.data.fhir.path}}datatypes.html#CodeableConcept">CodeableConcept</a>
                     <br/>Binding: <a href="http://hl7.org/fhir/ValueSet/adverse-event-type">AdverseEventType</a> 
                     <a href="{{site.data.fhir.path}}terminologies.html#example">example</a>
                  </td>
                  <td>
                     <p>AdverseEvent.event.coding.where(system=%MHLLT).code</p>
                  </td>
               </tr>
               <tr>
                  <td>
                     <span title="Code for an allergy or intolerance statement (either a positive or a negated/excluded statement).  This may be a code for a substance or pharmaceutical product that is considered to be responsible for the adverse reaction risk (e.g., &#34;Latex&#34;), an allergy or intolerance condition (e.g., &#34;Latex allergy&#34;), or a negated/excluded code for a specific substance or class (e.g., &#34;No latex allergy&#34;) or a general or categorical negated statement (e.g.,  &#34;No known allergy&#34;, &#34;No known drug allergies&#34;).  Note: the substance for a specific reaction may be different from the substance identified as the cause of the risk, but it must be consistent with it. For instance, it may be a more specific substance (e.g. a brand medication) or a composite product that includes the identified substance. It must be clinically safe to only process the 'code' and ignore the 'reaction.substance'.  If a receiving system is unable to confirm that AllergyIntolerance.reaction.substance falls within the semantic scope of AllergyIntolerance.code, then the receiving system should ignore AllergyIntolerance.reaction.substance.">
                        <a style="font-weight:bold"
                           href="{{site.data.fhir.path}}allergyintolerance-definitions.html#AllergyIntolerance.code">AllergyIntolerance.code</a>
                     </span>
                     <br/>0..1 <a href="{{site.data.fhir.path}}datatypes.html#CodeableConcept">CodeableConcept</a>
                     <br/>Binding: <a href="http://hl7.org/fhir/ValueSet/allergyintolerance-code">AllergyIntoleranceCode</a> 
                     <a href="{{site.data.fhir.path}}terminologies.html#example">example</a>
                  </td>
                  <td>
                     <p>AllergyIntolerance.code.coding.where(system=%MHLLT).code</p>
                  </td>
               </tr>
               <tr>
                  <td>
                     <span title="Describes what was observed. Sometimes this is called the observation &#34;name&#34;.">
                        <a style="font-weight:bold"
                           href="{{site.data.fhir.path}}observation-definitions.html#Observation.code">Observation.code</a>
                     </span>
                     <br/>1..1 <a href="{{site.data.fhir.path}}datatypes.html#CodeableConcept">CodeableConcept</a>
                     <br/>Binding: <a href="http://hl7.org/fhir/ValueSet/observation-codes">ObservationCode</a> 
                     <a href="{{site.data.fhir.path}}terminologies.html#example">example</a>
                  </td>
                  <td>
                     <p>Observation.code.coding.where(system=%MHLLT).code</p>
                  </td>
               </tr>
               <tr>
                  <th rowspan="4">MH Event Preferred Term Code</th>
                  <td rowspan="4">
                     <span style="font-weight:bold" title="MedDRA code for the Preferred Term.">
                        <a href="https://library.cdisc.org/api/mdr/cdashig/2-1/domains/MH/fields/MHPTCD">MHPTCD</a>
                     </span>
                     <br/>Core: O<br/>Type: Num</td>
                  <td rowspan="4">
                     <span style="font-weight:bold">MHPTCD*</span>
                  </td>
                  <td>
                     <span title="Identification of the condition, problem or diagnosis.">
                        <a style="font-weight:bold"
                           href="{{site.data.fhir.path}}condition-definitions.html#Condition.code">Condition.code</a>
                     </span>
                     <br/>0..1 <a href="{{site.data.fhir.path}}datatypes.html#CodeableConcept">CodeableConcept</a>
                     <br/>Binding: <a href="http://hl7.org/fhir/ValueSet/condition-code">ConditionKind</a> 
                     <a href="{{site.data.fhir.path}}terminologies.html#example">example</a>
                  </td>
                  <td>
                     <p>Condition.code.coding.where(system=%MHPT).code</p>
                  </td>
                  <td rowspan="4">In most cases, no MedDRA codes will be present in source data and all coding levels and displays will be added by the sponsor.  However, FHIR allows multiple codings and therefore all of these codes *can* be conveyed in FHIR if the data source chooses to capture them.  Standard code system URLs should be defined for each of the MedDRA levels.  If MedDRA is considered a single code system, then the consumer will be responsible for distinguishing which codes represent which levels by looking up the received code.</td>
               </tr>
               <tr>
                  <td>
                     <span title="This element defines the specific type of event that occurred or that was prevented from occurring.">
                        <a style="font-weight:bold"
                           href="{{site.data.fhir.path}}adverseevent-definitions.html#AdverseEvent.event">AdverseEvent.event</a>
                     </span>
                     <br/>0..1 <a href="{{site.data.fhir.path}}datatypes.html#CodeableConcept">CodeableConcept</a>
                     <br/>Binding: <a href="http://hl7.org/fhir/ValueSet/adverse-event-type">AdverseEventType</a> 
                     <a href="{{site.data.fhir.path}}terminologies.html#example">example</a>
                  </td>
                  <td>
                     <p>AdverseEvent.event.coding.where(system=%MHPT).code</p>
                  </td>
               </tr>
               <tr>
                  <td>
                     <span title="Code for an allergy or intolerance statement (either a positive or a negated/excluded statement).  This may be a code for a substance or pharmaceutical product that is considered to be responsible for the adverse reaction risk (e.g., &#34;Latex&#34;), an allergy or intolerance condition (e.g., &#34;Latex allergy&#34;), or a negated/excluded code for a specific substance or class (e.g., &#34;No latex allergy&#34;) or a general or categorical negated statement (e.g.,  &#34;No known allergy&#34;, &#34;No known drug allergies&#34;).  Note: the substance for a specific reaction may be different from the substance identified as the cause of the risk, but it must be consistent with it. For instance, it may be a more specific substance (e.g. a brand medication) or a composite product that includes the identified substance. It must be clinically safe to only process the 'code' and ignore the 'reaction.substance'.  If a receiving system is unable to confirm that AllergyIntolerance.reaction.substance falls within the semantic scope of AllergyIntolerance.code, then the receiving system should ignore AllergyIntolerance.reaction.substance.">
                        <a style="font-weight:bold"
                           href="{{site.data.fhir.path}}allergyintolerance-definitions.html#AllergyIntolerance.code">AllergyIntolerance.code</a>
                     </span>
                     <br/>0..1 <a href="{{site.data.fhir.path}}datatypes.html#CodeableConcept">CodeableConcept</a>
                     <br/>Binding: <a href="http://hl7.org/fhir/ValueSet/allergyintolerance-code">AllergyIntoleranceCode</a> 
                     <a href="{{site.data.fhir.path}}terminologies.html#example">example</a>
                  </td>
                  <td>
                     <p>AllergyIntolerance.code.coding.where(system=%MHPT).code</p>
                  </td>
               </tr>
               <tr>
                  <td>
                     <span title="Describes what was observed. Sometimes this is called the observation &#34;name&#34;.">
                        <a style="font-weight:bold"
                           href="{{site.data.fhir.path}}observation-definitions.html#Observation.code">Observation.code</a>
                     </span>
                     <br/>1..1 <a href="{{site.data.fhir.path}}datatypes.html#CodeableConcept">CodeableConcept</a>
                     <br/>Binding: <a href="http://hl7.org/fhir/ValueSet/observation-codes">ObservationCode</a> 
                     <a href="{{site.data.fhir.path}}terminologies.html#example">example</a>
                  </td>
                  <td>
                     <p>Observation.code.coding.where(system=%MHPT).code</p>
                  </td>
               </tr>
               <tr>
                  <th rowspan="4">Medical History Event High Level Term</th>
                  <td rowspan="4">
                     <span style="font-weight:bold"
                           title="MedDRA text description of the High Level Term from the primary path.">
                        <a href="https://library.cdisc.org/api/mdr/cdashig/2-1/domains/MH/fields/MHHLT">MHHLT</a>
                     </span>
                     <br/>Core: O<br/>Type: Char</td>
                  <td rowspan="4">
                     <span style="font-weight:bold">MHHLT*</span>
                  </td>
                  <td>
                     <span title="Identification of the condition, problem or diagnosis.">
                        <a style="font-weight:bold"
                           href="{{site.data.fhir.path}}condition-definitions.html#Condition.code">Condition.code</a>
                     </span>
                     <br/>0..1 <a href="{{site.data.fhir.path}}datatypes.html#CodeableConcept">CodeableConcept</a>
                     <br/>Binding: <a href="http://hl7.org/fhir/ValueSet/condition-code">ConditionKind</a> 
                     <a href="{{site.data.fhir.path}}terminologies.html#example">example</a>
                  </td>
                  <td>
                     <p>Condition.code.where(system=%MHHLT).display</p>
                  </td>
                  <td rowspan="4">In most cases, no MedDRA codes will be present in source data and all coding levels and displays will be added by the sponsor.  However, FHIR allows multiple codings and therefore all of these codes *can* be conveyed in FHIR if the data source chooses to capture them.  Standard code system URLs should be defined for each of the MedDRA levels.  If MedDRA is considered a single code system, then the consumer will be responsible for distinguishing which codes represent which levels by looking up the received code.</td>
               </tr>
               <tr>
                  <td>
                     <span title="This element defines the specific type of event that occurred or that was prevented from occurring.">
                        <a style="font-weight:bold"
                           href="{{site.data.fhir.path}}adverseevent-definitions.html#AdverseEvent.event">AdverseEvent.event</a>
                     </span>
                     <br/>0..1 <a href="{{site.data.fhir.path}}datatypes.html#CodeableConcept">CodeableConcept</a>
                     <br/>Binding: <a href="http://hl7.org/fhir/ValueSet/adverse-event-type">AdverseEventType</a> 
                     <a href="{{site.data.fhir.path}}terminologies.html#example">example</a>
                  </td>
                  <td>
                     <p>AdverseEvent.event.coding.where(system=%MHHLT).display</p>
                  </td>
               </tr>
               <tr>
                  <td>
                     <span title="Code for an allergy or intolerance statement (either a positive or a negated/excluded statement).  This may be a code for a substance or pharmaceutical product that is considered to be responsible for the adverse reaction risk (e.g., &#34;Latex&#34;), an allergy or intolerance condition (e.g., &#34;Latex allergy&#34;), or a negated/excluded code for a specific substance or class (e.g., &#34;No latex allergy&#34;) or a general or categorical negated statement (e.g.,  &#34;No known allergy&#34;, &#34;No known drug allergies&#34;).  Note: the substance for a specific reaction may be different from the substance identified as the cause of the risk, but it must be consistent with it. For instance, it may be a more specific substance (e.g. a brand medication) or a composite product that includes the identified substance. It must be clinically safe to only process the 'code' and ignore the 'reaction.substance'.  If a receiving system is unable to confirm that AllergyIntolerance.reaction.substance falls within the semantic scope of AllergyIntolerance.code, then the receiving system should ignore AllergyIntolerance.reaction.substance.">
                        <a style="font-weight:bold"
                           href="{{site.data.fhir.path}}allergyintolerance-definitions.html#AllergyIntolerance.code">AllergyIntolerance.code</a>
                     </span>
                     <br/>0..1 <a href="{{site.data.fhir.path}}datatypes.html#CodeableConcept">CodeableConcept</a>
                     <br/>Binding: <a href="http://hl7.org/fhir/ValueSet/allergyintolerance-code">AllergyIntoleranceCode</a> 
                     <a href="{{site.data.fhir.path}}terminologies.html#example">example</a>
                  </td>
                  <td>
                     <p>AllergyIntolerance.code.where(system=%MHHLT).display</p>
                  </td>
               </tr>
               <tr>
                  <td>
                     <span title="Describes what was observed. Sometimes this is called the observation &#34;name&#34;.">
                        <a style="font-weight:bold"
                           href="{{site.data.fhir.path}}observation-definitions.html#Observation.code">Observation.code</a>
                     </span>
                     <br/>1..1 <a href="{{site.data.fhir.path}}datatypes.html#CodeableConcept">CodeableConcept</a>
                     <br/>Binding: <a href="http://hl7.org/fhir/ValueSet/observation-codes">ObservationCode</a> 
                     <a href="{{site.data.fhir.path}}terminologies.html#example">example</a>
                  </td>
                  <td>
                     <p>Observation.code.where(system=%MHHLT).display</p>
                  </td>
               </tr>
               <tr>
                  <th rowspan="4">MH Event High Level Term Code</th>
                  <td rowspan="4">
                     <span style="font-weight:bold"
                           title="MedDRA High Level Term code from the primary path.">
                        <a href="https://library.cdisc.org/api/mdr/cdashig/2-1/domains/MH/fields/MHHLTCD">MHHLTCD</a>
                     </span>
                     <br/>Core: O<br/>Type: Num</td>
                  <td rowspan="4">
                     <span style="font-weight:bold">MHHLTCD*</span>
                  </td>
                  <td>
                     <span title="Identification of the condition, problem or diagnosis.">
                        <a style="font-weight:bold"
                           href="{{site.data.fhir.path}}condition-definitions.html#Condition.code">Condition.code</a>
                     </span>
                     <br/>0..1 <a href="{{site.data.fhir.path}}datatypes.html#CodeableConcept">CodeableConcept</a>
                     <br/>Binding: <a href="http://hl7.org/fhir/ValueSet/condition-code">ConditionKind</a> 
                     <a href="{{site.data.fhir.path}}terminologies.html#example">example</a>
                  </td>
                  <td>
                     <p>Condition.code.coding.where(system=%MHHLT).code</p>
                  </td>
                  <td rowspan="4">In most cases, no MedDRA codes will be present in source data and all coding levels and displays will be added by the sponsor.  However, FHIR allows multiple codings and therefore all of these codes *can* be conveyed in FHIR if the data source chooses to capture them.  Standard code system URLs should be defined for each of the MedDRA levels.  If MedDRA is considered a single code system, then the consumer will be responsible for distinguishing which codes represent which levels by looking up the received code.</td>
               </tr>
               <tr>
                  <td>
                     <span title="This element defines the specific type of event that occurred or that was prevented from occurring.">
                        <a style="font-weight:bold"
                           href="{{site.data.fhir.path}}adverseevent-definitions.html#AdverseEvent.event">AdverseEvent.event</a>
                     </span>
                     <br/>0..1 <a href="{{site.data.fhir.path}}datatypes.html#CodeableConcept">CodeableConcept</a>
                     <br/>Binding: <a href="http://hl7.org/fhir/ValueSet/adverse-event-type">AdverseEventType</a> 
                     <a href="{{site.data.fhir.path}}terminologies.html#example">example</a>
                  </td>
                  <td>
                     <p>AdverseEvent.event.coding.where(system=%MHHLT).code</p>
                  </td>
               </tr>
               <tr>
                  <td>
                     <span title="Code for an allergy or intolerance statement (either a positive or a negated/excluded statement).  This may be a code for a substance or pharmaceutical product that is considered to be responsible for the adverse reaction risk (e.g., &#34;Latex&#34;), an allergy or intolerance condition (e.g., &#34;Latex allergy&#34;), or a negated/excluded code for a specific substance or class (e.g., &#34;No latex allergy&#34;) or a general or categorical negated statement (e.g.,  &#34;No known allergy&#34;, &#34;No known drug allergies&#34;).  Note: the substance for a specific reaction may be different from the substance identified as the cause of the risk, but it must be consistent with it. For instance, it may be a more specific substance (e.g. a brand medication) or a composite product that includes the identified substance. It must be clinically safe to only process the 'code' and ignore the 'reaction.substance'.  If a receiving system is unable to confirm that AllergyIntolerance.reaction.substance falls within the semantic scope of AllergyIntolerance.code, then the receiving system should ignore AllergyIntolerance.reaction.substance.">
                        <a style="font-weight:bold"
                           href="{{site.data.fhir.path}}allergyintolerance-definitions.html#AllergyIntolerance.code">AllergyIntolerance.code</a>
                     </span>
                     <br/>0..1 <a href="{{site.data.fhir.path}}datatypes.html#CodeableConcept">CodeableConcept</a>
                     <br/>Binding: <a href="http://hl7.org/fhir/ValueSet/allergyintolerance-code">AllergyIntoleranceCode</a> 
                     <a href="{{site.data.fhir.path}}terminologies.html#example">example</a>
                  </td>
                  <td>
                     <p>AllergyIntolerance.code.coding.where(system=%MHHLT).code</p>
                  </td>
               </tr>
               <tr>
                  <td>
                     <span title="Describes what was observed. Sometimes this is called the observation &#34;name&#34;.">
                        <a style="font-weight:bold"
                           href="{{site.data.fhir.path}}observation-definitions.html#Observation.code">Observation.code</a>
                     </span>
                     <br/>1..1 <a href="{{site.data.fhir.path}}datatypes.html#CodeableConcept">CodeableConcept</a>
                     <br/>Binding: <a href="http://hl7.org/fhir/ValueSet/observation-codes">ObservationCode</a> 
                     <a href="{{site.data.fhir.path}}terminologies.html#example">example</a>
                  </td>
                  <td>
                     <p>Observation.code.coding.where(system=%MHHLT).code</p>
                  </td>
               </tr>
               <tr>
                  <th rowspan="4">MH Event High Level Group Term</th>
                  <td rowspan="4">
                     <span style="font-weight:bold"
                           title="MedDRA text description of the High Level Group Term from the primary path.">
                        <a href="https://library.cdisc.org/api/mdr/cdashig/2-1/domains/MH/fields/MHHLGT">MHHLGT</a>
                     </span>
                     <br/>Core: O<br/>Type: Char</td>
                  <td rowspan="4">
                     <span style="font-weight:bold">MHHLGT*</span>
                  </td>
                  <td>
                     <span title="Identification of the condition, problem or diagnosis.">
                        <a style="font-weight:bold"
                           href="{{site.data.fhir.path}}condition-definitions.html#Condition.code">Condition.code</a>
                     </span>
                     <br/>0..1 <a href="{{site.data.fhir.path}}datatypes.html#CodeableConcept">CodeableConcept</a>
                     <br/>Binding: <a href="http://hl7.org/fhir/ValueSet/condition-code">ConditionKind</a> 
                     <a href="{{site.data.fhir.path}}terminologies.html#example">example</a>
                  </td>
                  <td>
                     <p>Condition.code.coding.where(system=%MHHLG).display</p>
                  </td>
                  <td rowspan="4">In most cases, no MedDRA codes will be present in source data and all coding levels and displays will be added by the sponsor.  However, FHIR allows multiple codings and therefore all of these codes *can* be conveyed in FHIR if the data source chooses to capture them.  Standard code system URLs should be defined for each of the MedDRA levels.  If MedDRA is considered a single code system, then the consumer will be responsible for distinguishing which codes represent which levels by looking up the received code.</td>
               </tr>
               <tr>
                  <td>
                     <span title="This element defines the specific type of event that occurred or that was prevented from occurring.">
                        <a style="font-weight:bold"
                           href="{{site.data.fhir.path}}adverseevent-definitions.html#AdverseEvent.event">AdverseEvent.event</a>
                     </span>
                     <br/>0..1 <a href="{{site.data.fhir.path}}datatypes.html#CodeableConcept">CodeableConcept</a>
                     <br/>Binding: <a href="http://hl7.org/fhir/ValueSet/adverse-event-type">AdverseEventType</a> 
                     <a href="{{site.data.fhir.path}}terminologies.html#example">example</a>
                  </td>
                  <td>
                     <p>AdverseEvent.event.coding.where(system=%MHHLG).display</p>
                  </td>
               </tr>
               <tr>
                  <td>
                     <span title="Code for an allergy or intolerance statement (either a positive or a negated/excluded statement).  This may be a code for a substance or pharmaceutical product that is considered to be responsible for the adverse reaction risk (e.g., &#34;Latex&#34;), an allergy or intolerance condition (e.g., &#34;Latex allergy&#34;), or a negated/excluded code for a specific substance or class (e.g., &#34;No latex allergy&#34;) or a general or categorical negated statement (e.g.,  &#34;No known allergy&#34;, &#34;No known drug allergies&#34;).  Note: the substance for a specific reaction may be different from the substance identified as the cause of the risk, but it must be consistent with it. For instance, it may be a more specific substance (e.g. a brand medication) or a composite product that includes the identified substance. It must be clinically safe to only process the 'code' and ignore the 'reaction.substance'.  If a receiving system is unable to confirm that AllergyIntolerance.reaction.substance falls within the semantic scope of AllergyIntolerance.code, then the receiving system should ignore AllergyIntolerance.reaction.substance.">
                        <a style="font-weight:bold"
                           href="{{site.data.fhir.path}}allergyintolerance-definitions.html#AllergyIntolerance.code">AllergyIntolerance.code</a>
                     </span>
                     <br/>0..1 <a href="{{site.data.fhir.path}}datatypes.html#CodeableConcept">CodeableConcept</a>
                     <br/>Binding: <a href="http://hl7.org/fhir/ValueSet/allergyintolerance-code">AllergyIntoleranceCode</a> 
                     <a href="{{site.data.fhir.path}}terminologies.html#example">example</a>
                  </td>
                  <td>
                     <p>AllergyIntolerance.code.coding.where(system=%MHHLG).display</p>
                  </td>
               </tr>
               <tr>
                  <td>
                     <span title="Describes what was observed. Sometimes this is called the observation &#34;name&#34;.">
                        <a style="font-weight:bold"
                           href="{{site.data.fhir.path}}observation-definitions.html#Observation.code">Observation.code</a>
                     </span>
                     <br/>1..1 <a href="{{site.data.fhir.path}}datatypes.html#CodeableConcept">CodeableConcept</a>
                     <br/>Binding: <a href="http://hl7.org/fhir/ValueSet/observation-codes">ObservationCode</a> 
                     <a href="{{site.data.fhir.path}}terminologies.html#example">example</a>
                  </td>
                  <td>
                     <p>Observation.code.coding.where(system=%MHHLG).display</p>
                  </td>
               </tr>
               <tr>
                  <th rowspan="4">MH Event High Level Group Term Code</th>
                  <td rowspan="4">
                     <span style="font-weight:bold"
                           title="MedDRA High Level Group Term code from the primary path.">
                        <a href="https://library.cdisc.org/api/mdr/cdashig/2-1/domains/MH/fields/MHHLGTCD">MHHLGTCD</a>
                     </span>
                     <br/>Core: O<br/>Type: Num</td>
                  <td rowspan="4">
                     <span style="font-weight:bold">MHHLGTCD*</span>
                  </td>
                  <td>
                     <span title="Identification of the condition, problem or diagnosis.">
                        <a style="font-weight:bold"
                           href="{{site.data.fhir.path}}condition-definitions.html#Condition.code">Condition.code</a>
                     </span>
                     <br/>0..1 <a href="{{site.data.fhir.path}}datatypes.html#CodeableConcept">CodeableConcept</a>
                     <br/>Binding: <a href="http://hl7.org/fhir/ValueSet/condition-code">ConditionKind</a> 
                     <a href="{{site.data.fhir.path}}terminologies.html#example">example</a>
                  </td>
                  <td>
                     <p>Condition.code.coding.where(system=%MHHLG).code</p>
                  </td>
                  <td rowspan="4">In most cases, no MedDRA codes will be present in source data and all coding levels and displays will be added by the sponsor.  However, FHIR allows multiple codings and therefore all of these codes *can* be conveyed in FHIR if the data source chooses to capture them.  Standard code system URLs should be defined for each of the MedDRA levels.  If MedDRA is considered a single code system, then the consumer will be responsible for distinguishing which codes represent which levels by looking up the received code.</td>
               </tr>
               <tr>
                  <td>
                     <span title="This element defines the specific type of event that occurred or that was prevented from occurring.">
                        <a style="font-weight:bold"
                           href="{{site.data.fhir.path}}adverseevent-definitions.html#AdverseEvent.event">AdverseEvent.event</a>
                     </span>
                     <br/>0..1 <a href="{{site.data.fhir.path}}datatypes.html#CodeableConcept">CodeableConcept</a>
                     <br/>Binding: <a href="http://hl7.org/fhir/ValueSet/adverse-event-type">AdverseEventType</a> 
                     <a href="{{site.data.fhir.path}}terminologies.html#example">example</a>
                  </td>
                  <td>
                     <p>AdverseEvent.event.coding.where(system=%MHHLG).code</p>
                  </td>
               </tr>
               <tr>
                  <td>
                     <span title="Code for an allergy or intolerance statement (either a positive or a negated/excluded statement).  This may be a code for a substance or pharmaceutical product that is considered to be responsible for the adverse reaction risk (e.g., &#34;Latex&#34;), an allergy or intolerance condition (e.g., &#34;Latex allergy&#34;), or a negated/excluded code for a specific substance or class (e.g., &#34;No latex allergy&#34;) or a general or categorical negated statement (e.g.,  &#34;No known allergy&#34;, &#34;No known drug allergies&#34;).  Note: the substance for a specific reaction may be different from the substance identified as the cause of the risk, but it must be consistent with it. For instance, it may be a more specific substance (e.g. a brand medication) or a composite product that includes the identified substance. It must be clinically safe to only process the 'code' and ignore the 'reaction.substance'.  If a receiving system is unable to confirm that AllergyIntolerance.reaction.substance falls within the semantic scope of AllergyIntolerance.code, then the receiving system should ignore AllergyIntolerance.reaction.substance.">
                        <a style="font-weight:bold"
                           href="{{site.data.fhir.path}}allergyintolerance-definitions.html#AllergyIntolerance.code">AllergyIntolerance.code</a>
                     </span>
                     <br/>0..1 <a href="{{site.data.fhir.path}}datatypes.html#CodeableConcept">CodeableConcept</a>
                     <br/>Binding: <a href="http://hl7.org/fhir/ValueSet/allergyintolerance-code">AllergyIntoleranceCode</a> 
                     <a href="{{site.data.fhir.path}}terminologies.html#example">example</a>
                  </td>
                  <td>
                     <p>AllergyIntolerance.code.coding.where(system=%MHHLG).code</p>
                  </td>
               </tr>
               <tr>
                  <td>
                     <span title="Describes what was observed. Sometimes this is called the observation &#34;name&#34;.">
                        <a style="font-weight:bold"
                           href="{{site.data.fhir.path}}observation-definitions.html#Observation.code">Observation.code</a>
                     </span>
                     <br/>1..1 <a href="{{site.data.fhir.path}}datatypes.html#CodeableConcept">CodeableConcept</a>
                     <br/>Binding: <a href="http://hl7.org/fhir/ValueSet/observation-codes">ObservationCode</a> 
                     <a href="{{site.data.fhir.path}}terminologies.html#example">example</a>
                  </td>
                  <td>
                     <p>Observation.code.coding.where(system=%MHHLG).code</p>
                  </td>
               </tr>
               <tr>
                  <th rowspan="4">MH Event Primary System Organ Class</th>
                  <td rowspan="4"/>
                  <td rowspan="4">
                     <span style="font-weight:bold">MHSCOC*</span>
                  </td>
                  <td>
                     <span title="Identification of the condition, problem or diagnosis.">
                        <a style="font-weight:bold"
                           href="{{site.data.fhir.path}}condition-definitions.html#Condition.code">Condition.code</a>
                     </span>
                     <br/>0..1 <a href="{{site.data.fhir.path}}datatypes.html#CodeableConcept">CodeableConcept</a>
                     <br/>Binding: <a href="http://hl7.org/fhir/ValueSet/condition-code">ConditionKind</a> 
                     <a href="{{site.data.fhir.path}}terminologies.html#example">example</a>
                  </td>
                  <td>
                     <p>Condition.code.coding.where(system=%MHHLG).code</p>
                  </td>
                  <td rowspan="4">In most cases, no MedDRA codes will be present in source data and all coding levels and displays will be added by the sponsor.  However, FHIR allows multiple codings and therefore all of these codes *can* be conveyed in FHIR if the data source chooses to capture them.  Standard code system URLs should be defined for each of the MedDRA levels.  If MedDRA is considered a single code system, then the consumer will be responsible for distinguishing which codes represent which levels by looking up the received code.</td>
               </tr>
               <tr>
                  <td>
                     <span title="This element defines the specific type of event that occurred or that was prevented from occurring.">
                        <a style="font-weight:bold"
                           href="{{site.data.fhir.path}}adverseevent-definitions.html#AdverseEvent.event">AdverseEvent.event</a>
                     </span>
                     <br/>0..1 <a href="{{site.data.fhir.path}}datatypes.html#CodeableConcept">CodeableConcept</a>
                     <br/>Binding: <a href="http://hl7.org/fhir/ValueSet/adverse-event-type">AdverseEventType</a> 
                     <a href="{{site.data.fhir.path}}terminologies.html#example">example</a>
                  </td>
                  <td>
                     <p>AdverseEvent.event.coding.where(system=%MHHLG).code</p>
                  </td>
               </tr>
               <tr>
                  <td>
                     <span title="Code for an allergy or intolerance statement (either a positive or a negated/excluded statement).  This may be a code for a substance or pharmaceutical product that is considered to be responsible for the adverse reaction risk (e.g., &#34;Latex&#34;), an allergy or intolerance condition (e.g., &#34;Latex allergy&#34;), or a negated/excluded code for a specific substance or class (e.g., &#34;No latex allergy&#34;) or a general or categorical negated statement (e.g.,  &#34;No known allergy&#34;, &#34;No known drug allergies&#34;).  Note: the substance for a specific reaction may be different from the substance identified as the cause of the risk, but it must be consistent with it. For instance, it may be a more specific substance (e.g. a brand medication) or a composite product that includes the identified substance. It must be clinically safe to only process the 'code' and ignore the 'reaction.substance'.  If a receiving system is unable to confirm that AllergyIntolerance.reaction.substance falls within the semantic scope of AllergyIntolerance.code, then the receiving system should ignore AllergyIntolerance.reaction.substance.">
                        <a style="font-weight:bold"
                           href="{{site.data.fhir.path}}allergyintolerance-definitions.html#AllergyIntolerance.code">AllergyIntolerance.code</a>
                     </span>
                     <br/>0..1 <a href="{{site.data.fhir.path}}datatypes.html#CodeableConcept">CodeableConcept</a>
                     <br/>Binding: <a href="http://hl7.org/fhir/ValueSet/allergyintolerance-code">AllergyIntoleranceCode</a> 
                     <a href="{{site.data.fhir.path}}terminologies.html#example">example</a>
                  </td>
                  <td>
                     <p>AllergyIntolerance.code.coding.where(system=%MHHLG).code</p>
                  </td>
               </tr>
               <tr>
                  <td>
                     <span title="Describes what was observed. Sometimes this is called the observation &#34;name&#34;.">
                        <a style="font-weight:bold"
                           href="{{site.data.fhir.path}}observation-definitions.html#Observation.code">Observation.code</a>
                     </span>
                     <br/>1..1 <a href="{{site.data.fhir.path}}datatypes.html#CodeableConcept">CodeableConcept</a>
                     <br/>Binding: <a href="http://hl7.org/fhir/ValueSet/observation-codes">ObservationCode</a> 
                     <a href="{{site.data.fhir.path}}terminologies.html#example">example</a>
                  </td>
                  <td>
                     <p>Observation.code.coding.where(system=%MHHLG).code</p>
                  </td>
               </tr>
               <tr>
                  <th rowspan="4">MH Event Primary System Organ Class Code</th>
                  <td rowspan="4">
                     <span style="font-weight:bold"
                           title="MedDRA code for the primary System Organ Class.">
                        <a href="https://library.cdisc.org/api/mdr/cdashig/2-1/domains/MH/fields/MHSOCCD">MHSOCCD</a>
                     </span>
                     <br/>Core: O<br/>Type: Num</td>
                  <td rowspan="4">
                     <span style="font-weight:bold">MHSOCCD*</span>
                  </td>
                  <td>
                     <span title="Identification of the condition, problem or diagnosis.">
                        <a style="font-weight:bold"
                           href="{{site.data.fhir.path}}condition-definitions.html#Condition.code">Condition.code</a>
                     </span>
                     <br/>0..1 <a href="{{site.data.fhir.path}}datatypes.html#CodeableConcept">CodeableConcept</a>
                     <br/>Binding: <a href="http://hl7.org/fhir/ValueSet/condition-code">ConditionKind</a> 
                     <a href="{{site.data.fhir.path}}terminologies.html#example">example</a>
                  </td>
                  <td>
                     <p>Condition.code.coding.where(system=%MHSOC).code</p>
                  </td>
                  <td rowspan="4">In most cases, no MedDRA codes will be present in source data and all coding levels and displays will be added by the sponsor.  However, FHIR allows multiple codings and therefore all of these codes *can* be conveyed in FHIR if the data source chooses to capture them.  Standard code system URLs should be defined for each of the MedDRA levels.  If MedDRA is considered a single code system, then the consumer will be responsible for distinguishing which codes represent which levels by looking up the received code.</td>
               </tr>
               <tr>
                  <td>
                     <span title="This element defines the specific type of event that occurred or that was prevented from occurring.">
                        <a style="font-weight:bold"
                           href="{{site.data.fhir.path}}adverseevent-definitions.html#AdverseEvent.event">AdverseEvent.event</a>
                     </span>
                     <br/>0..1 <a href="{{site.data.fhir.path}}datatypes.html#CodeableConcept">CodeableConcept</a>
                     <br/>Binding: <a href="http://hl7.org/fhir/ValueSet/adverse-event-type">AdverseEventType</a> 
                     <a href="{{site.data.fhir.path}}terminologies.html#example">example</a>
                  </td>
                  <td>
                     <p>AdverseEvent.event.coding.where(system=%MHSOC).code</p>
                  </td>
               </tr>
               <tr>
                  <td>
                     <span title="Code for an allergy or intolerance statement (either a positive or a negated/excluded statement).  This may be a code for a substance or pharmaceutical product that is considered to be responsible for the adverse reaction risk (e.g., &#34;Latex&#34;), an allergy or intolerance condition (e.g., &#34;Latex allergy&#34;), or a negated/excluded code for a specific substance or class (e.g., &#34;No latex allergy&#34;) or a general or categorical negated statement (e.g.,  &#34;No known allergy&#34;, &#34;No known drug allergies&#34;).  Note: the substance for a specific reaction may be different from the substance identified as the cause of the risk, but it must be consistent with it. For instance, it may be a more specific substance (e.g. a brand medication) or a composite product that includes the identified substance. It must be clinically safe to only process the 'code' and ignore the 'reaction.substance'.  If a receiving system is unable to confirm that AllergyIntolerance.reaction.substance falls within the semantic scope of AllergyIntolerance.code, then the receiving system should ignore AllergyIntolerance.reaction.substance.">
                        <a style="font-weight:bold"
                           href="{{site.data.fhir.path}}allergyintolerance-definitions.html#AllergyIntolerance.code">AllergyIntolerance.code</a>
                     </span>
                     <br/>0..1 <a href="{{site.data.fhir.path}}datatypes.html#CodeableConcept">CodeableConcept</a>
                     <br/>Binding: <a href="http://hl7.org/fhir/ValueSet/allergyintolerance-code">AllergyIntoleranceCode</a> 
                     <a href="{{site.data.fhir.path}}terminologies.html#example">example</a>
                  </td>
                  <td>
                     <p>AllergyIntolerance.code.coding.where(system=%MHSOC).code</p>
                  </td>
               </tr>
               <tr>
                  <td>
                     <span title="Describes what was observed. Sometimes this is called the observation &#34;name&#34;.">
                        <a style="font-weight:bold"
                           href="{{site.data.fhir.path}}observation-definitions.html#Observation.code">Observation.code</a>
                     </span>
                     <br/>1..1 <a href="{{site.data.fhir.path}}datatypes.html#CodeableConcept">CodeableConcept</a>
                     <br/>Binding: <a href="http://hl7.org/fhir/ValueSet/observation-codes">ObservationCode</a> 
                     <a href="{{site.data.fhir.path}}terminologies.html#example">example</a>
                  </td>
                  <td>
                     <p>Observation.code.coding.where(system=%MHSOC).code</p>
                  </td>
               </tr>
            </tbody>
         </table>
      </div>
      <div id="mapping">
         <table class="grid"
                style="width:150%;word-break:break-word;table-layout:fixed;">
            <col style="width:15%"/>
            <col style="width:15%;"/>
            <col style="width:20%;"/>
            <col style="width:7.5%"/>
            <col style="width:7.5%"/>
            <col style="width:35%;"/>
            <thead style="background-color:PowderBlue;">
               <tr>
                  <th/>
                  <th colspan="2" style="text-align:center;">FHIR map (or gap)</th>
                  <th colspan="2" style="text-align:center;">CDISC</th>
                  <th rowspan="2" style="vertical-align:bottom;text-align:center;">Comment</th>
               </tr>
               <tr style="text-align:center;">
                  <th style="text-align:center;">Label</th>
                  <th style="text-align:center;">Element</th>
                  <th style="text-align:center;">FHIRPath</th>
                  <th style="text-align:center;">CDASH</th>
                  <th style="text-align:center;">SDTM</th>
               </tr>
            </thead>
            <tbody>
               <tr>
                  <th>Study Identifier</th>
                  <td>
                     <span title="Identifiers assigned to this research study by the sponsor or other systems.">
                        <a style="font-weight:bold"
                           href="{{site.data.fhir.path}}researchstudy-definitions.html#ResearchStudy.identifier">ResearchStudy.identifier</a>
                     </span>
                     <br/>0..* <a href="{{site.data.fhir.path}}datatypes.html#Identifier">Identifier</a>
                  </td>
                  <td>
                     <p>ResearchSubject.where(individual=(AdverseEvent.subject|Condition.subject|AllergyIntolerance.patient|Observation.subject).study.resolve().partOf.resolve().identifier.value</p>
                     <p>AdverseEvent.extension(workflow-researchstudy).valueReference.resolve().partOf.resolve().identifier.value</p>
                     <p>Condition.extension(workflow-researchstudy).valueReference.resolve().partOf.resolve().identifier.value</p>
                     <p>AllergyIntolerance.extension(workflow-researchstudy).valueReference.resolve().partOf.resolve().identifier.value</p>
                     <p>Observation.extension(workflow-researchstudy).valueReference.resolve().partOf.resolve().identifier.value</p>
                  </td>
                  <td>
                     <span style="font-weight:bold" title="A unique identifier for a study.">
                        <a href="https://library.cdisc.org/api/mdr/cdashig/2-1/domains/MH/fields/STUDYID">STUDYID</a>
                     </span>
                     <br/>Core: HR<br/>Type: Char</td>
                  <td>
                     <span style="font-weight:bold" title="Unique identifier for a study.">
                        <a href="https://library.cdisc.org/api/mdr/sdtmig/3-2/datasets/MH/variables/STUDYID">STUDYID</a>
                     </span>
                     <br/>Core: Req<br/>Type: Char</td>
                  <td>Mapping is based on presumption that research subject will be tied to site-specific ResearchStudy, which will then be part of overall ResearchStudy.<br/>
                     <br/>The path using the extension will only exist if the system maintaining the AdverseEvent/Condition/AllergyIntolerance/Observation is aware of its relevance to the Study.</td>
               </tr>
               <tr>
                  <th>Study Site Identifier</th>
                  <td>
                     <span title="A facility in which study activities are conducted.">
                        <a style="font-weight:bold"
                           href="{{site.data.fhir.path}}researchstudy-definitions.html#ResearchStudy.site">ResearchStudy.site</a>
                     </span>
                     <br/>0..* <a href="{{site.data.fhir.path}}references.html">Reference</a>
                  </td>
                  <td>
                     <p>ResearchSubject.where(individual=(AdverseEvent.subject|Condition.subject|AllergyIntolerance.patient|Observation.subject).study.resolve().identifier.value</p>
                     <p>AdverseEvent.extension(workflow-researchstudy).valueReference.resolve().identifier.value</p>
                     <p>Condition.extension(workflow-researchstudy).valueReference.resolve().identifier.value</p>
                     <p>AllergyIntolerance.extension(workflow-researchstudy).valueReference.resolve().identifier.value</p>
                     <p>Observation.extension(workflow-researchstudy).valueReference.resolve().identifier.value</p>
                  </td>
                  <td>
                     <span style="font-weight:bold"
                           title="A unique identifier for a site within a study.">
                        <a href="https://library.cdisc.org/api/mdr/cdashig/2-1/domains/MH/fields/SITEID">SITEID</a>
                     </span>
                     <br/>Core: HR<br/>Type: Char</td>
                  <td>
                     <span style="font-weight:bold"
                           title="Unique identifier for a site within a study.">
                        <a href="https://library.cdisc.org/api/mdr/sdtmig/3-2/datasets/DM/variables/SITEID">DM.SITEID</a>
                     </span>
                     <br/>Core: Req<br/>Type: Char</td>
                  <td>Mapping is based on presumption that research subject will be tied to site-specific ResearchStudy, which will then be part of overall ResearchStudy.<br/>
                     <br/>The path using the extension will only exist if the system maintaining the AdverseEvent/Condition/AllergyIntolerance/Observation is aware of its relevance to the Study.</td>
               </tr>
               <tr>
                  <th>Subject Identifier for the Study</th>
                  <td>
                     <span title="Identifiers assigned to this research subject for a study.">
                        <a style="font-weight:bold"
                           href="{{site.data.fhir.path}}researchsubject-definitions.html#ResearchSubject.identifier">ResearchSubject.identifier</a>
                     </span>
                     <br/>0..* <a href="{{site.data.fhir.path}}datatypes.html#Identifier">Identifier</a>
                  </td>
                  <td>
                     <p>ResearchSubject.where(individual=(AdverseEvent.subject|Condition.subject|AllergyIntolerance.patient|Observation.subject)).identifer.value</p>
                  </td>
                  <td>
                     <span style="font-weight:bold"
                           title="A unique subject identifier within a site and a study.">
                        <a href="https://library.cdisc.org/api/mdr/cdashig/2-1/domains/MH/fields/SUBJID">SUBJID</a>
                     </span>
                     <br/>Core: HR<br/>Type: Char</td>
                  <td>
                     <span style="font-weight:bold"
                           title="Subject identifier, which must be unique within the study. Often the ID of the subject as recorded on a CRF.">
                        <a href="https://library.cdisc.org/api/mdr/sdtmig/3-2/datasets/DM/variables/SUBJID">DM.SUBJID</a>
                     </span>
                     <br/>Core: Req<br/>Type: Char</td>
                  <td>Study subject is found by finding the StudySubject that corresponds to the same Patient and ResearchStudy as the focal resource.<br/>
                     <br/>No standard way to decide which subject identifier to use</td>
               </tr>
               <tr>
                  <th>Any Medical History Event</th>
                  <td colspan="2" style="background-color:LightGray">If captured, this would be a Questionnaire question.  FHIR almost always has some type of history information.  Will require review to determine if the history is relevant.</td>
                  <td>
                     <span style="font-weight:bold"
                           title="An indication whether or not there was any medical history to report.">
                        <a href="https://library.cdisc.org/api/mdr/cdashig/2-1/domains/MH/fields/MHYN">MHYN</a>
                     </span>
                     <br/>Core: O<br/>Type: Char</td>
                  <td>
                     <span style="font-weight:bold"/>
                  </td>
                  <td/>
               </tr>
               <tr>
                  <th rowspan="4">Category for Medical History</th>
                  <td>
                     <span title="A category assigned to the condition.">
                        <a style="font-weight:bold"
                           href="{{site.data.fhir.path}}condition-definitions.html#Condition.category">Condition.category</a>
                     </span>
                     <br/>0..* <a href="{{site.data.fhir.path}}datatypes.html#CodeableConcept">CodeableConcept</a>
                     <br/>Binding: <a href="http://hl7.org/fhir/ValueSet/condition-category">ConditionCategory</a> 
                     <a href="{{site.data.fhir.path}}terminologies.html#extensible">extensible</a>
                  </td>
                  <td>
                     <p>Condition.category</p>
                  </td>
                  <td rowspan="4">
                     <span style="font-weight:bold"
                           title="A grouping of topic-variable values based on user-defined characteristics.">
                        <a href="https://library.cdisc.org/api/mdr/cdashig/2-1/domains/MH/fields/MHCAT">MHCAT</a>
                     </span>
                     <br/>Core: R/C<br/>Type: Char</td>
                  <td rowspan="4">
                     <span style="font-weight:bold"
                           title="Used to define a category of related records. Examples: CARDIAC or GENERAL">
                        <a href="https://library.cdisc.org/api/mdr/sdtmig/3-2/datasets/MH/variables/MHCAT">MHCAT</a>
                     </span>
                     <br/>Core: Perm<br/>Type: Char</td>
                  <td rowspan="4">The sponsors does not typically require this information from the sites.<br/>
                     <br/>If needed there are several options to categorize this based on whether something is a Condition/AllergyIntolerance/Observation/etc.  This could also include sub-categorize by diagnosis vs. problem, Allergy vs. intolerance or use Observation.category.  But in general, the mapping to both CAT and SCAT is going to be driven by what types of categories the study requires or needs.</td>
               </tr>
               <tr>
                  <td>
                     <span title="The overall type of event, intended for search and filtering purposes.">
                        <a style="font-weight:bold"
                           href="{{site.data.fhir.path}}adverseevent-definitions.html#AdverseEvent.category">AdverseEvent.category</a>
                     </span>
                     <br/>0..* <a href="{{site.data.fhir.path}}datatypes.html#CodeableConcept">CodeableConcept</a>
                     <br/>Binding: <a href="http://hl7.org/fhir/ValueSet/adverse-event-category">AdverseEventCategory</a> 
                     <a href="{{site.data.fhir.path}}terminologies.html#extensible">extensible</a>
                  </td>
                  <td>
                     <p>AdverseEvent.category</p>
                  </td>
               </tr>
               <tr>
                  <td>
                     <span title="Category of the identified substance.">
                        <a style="font-weight:bold"
                           href="{{site.data.fhir.path}}allergyintolerance-definitions.html#AllergyIntolerance.category">AllergyIntolerance.category</a>
                     </span>
                     <br/>0..* <a href="{{site.data.fhir.path}}datatypes.html#code">code</a>
                     <br/>Binding: <a href="http://hl7.org/fhir/ValueSet/allergy-intolerance-category">AllergyIntoleranceCategory</a> 
                     <a href="{{site.data.fhir.path}}terminologies.html#required">required</a>
                  </td>
                  <td>
                     <p>AllergyIntolerance.category</p>
                  </td>
               </tr>
               <tr>
                  <td>
                     <span title="A code that classifies the general type of observation being made.">
                        <a style="font-weight:bold"
                           href="{{site.data.fhir.path}}observation-definitions.html#Observation.category">Observation.category</a>
                     </span>
                     <br/>0..* <a href="{{site.data.fhir.path}}datatypes.html#CodeableConcept">CodeableConcept</a>
                     <br/>Binding: <a href="http://hl7.org/fhir/ValueSet/observation-category">ObservationCategory</a> 
                     <a href="{{site.data.fhir.path}}terminologies.html#preferred">preferred</a>
                  </td>
                  <td>
                     <p>Observation.category</p>
                  </td>
               </tr>
               <tr>
                  <th rowspan="4">Subcategory for Medical History</th>
                  <td>
                     <span title="A category assigned to the condition.">
                        <a style="font-weight:bold"
                           href="{{site.data.fhir.path}}condition-definitions.html#Condition.category">Condition.category</a>
                     </span>
                     <br/>0..* <a href="{{site.data.fhir.path}}datatypes.html#CodeableConcept">CodeableConcept</a>
                     <br/>Binding: <a href="http://hl7.org/fhir/ValueSet/condition-category">ConditionCategory</a> 
                     <a href="{{site.data.fhir.path}}terminologies.html#extensible">extensible</a>
                  </td>
                  <td>
                     <p>Condition.category</p>
                  </td>
                  <td rowspan="4">
                     <span style="font-weight:bold"
                           title="A sub-division of the MHCAT values based on user-defined characteristics.">
                        <a href="https://library.cdisc.org/api/mdr/cdashig/2-1/domains/MH/fields/MHSCAT">MHSCAT</a>
                     </span>
                     <br/>Core: O<br/>Type: Char</td>
                  <td rowspan="4">
                     <span style="font-weight:bold"
                           title="A further categorization of the condition or event.">
                        <a href="https://library.cdisc.org/api/mdr/sdtmig/3-2/datasets/MH/variables/MHSCAT">MHSCAT</a>
                     </span>
                     <br/>Core: Perm<br/>Type: Char</td>
                  <td rowspan="4">The sponsors does not typically require this information from the sites.<br/>
                     <br/>If needed there are several options to categorize this based on whether something is a Condition/AllergyIntolerance/Observation/etc.  This could also include sub-categorize by diagnosis vs. problem, Allergy vs. intolerance or use Observation.category.  But in general, the mapping to both CAT and SCAT is going to be driven by what types of categories the study requires or needs.</td>
               </tr>
               <tr>
                  <td>
                     <span title="The overall type of event, intended for search and filtering purposes.">
                        <a style="font-weight:bold"
                           href="{{site.data.fhir.path}}adverseevent-definitions.html#AdverseEvent.category">AdverseEvent.category</a>
                     </span>
                     <br/>0..* <a href="{{site.data.fhir.path}}datatypes.html#CodeableConcept">CodeableConcept</a>
                     <br/>Binding: <a href="http://hl7.org/fhir/ValueSet/adverse-event-category">AdverseEventCategory</a> 
                     <a href="{{site.data.fhir.path}}terminologies.html#extensible">extensible</a>
                  </td>
                  <td>
                     <p>AdverseEvent.category</p>
                  </td>
               </tr>
               <tr>
                  <td>
                     <span title="Category of the identified substance.">
                        <a style="font-weight:bold"
                           href="{{site.data.fhir.path}}allergyintolerance-definitions.html#AllergyIntolerance.category">AllergyIntolerance.category</a>
                     </span>
                     <br/>0..* <a href="{{site.data.fhir.path}}datatypes.html#code">code</a>
                     <br/>Binding: <a href="http://hl7.org/fhir/ValueSet/allergy-intolerance-category">AllergyIntoleranceCategory</a> 
                     <a href="{{site.data.fhir.path}}terminologies.html#required">required</a>
                  </td>
                  <td>
                     <p>AllergyIntolerance.category</p>
                  </td>
               </tr>
               <tr>
                  <td>
                     <span title="A code that classifies the general type of observation being made.">
                        <a style="font-weight:bold"
                           href="{{site.data.fhir.path}}observation-definitions.html#Observation.category">Observation.category</a>
                     </span>
                     <br/>0..* <a href="{{site.data.fhir.path}}datatypes.html#CodeableConcept">CodeableConcept</a>
                     <br/>Binding: <a href="http://hl7.org/fhir/ValueSet/observation-category">ObservationCategory</a> 
                     <a href="{{site.data.fhir.path}}terminologies.html#preferred">preferred</a>
                  </td>
                  <td>
                     <p>Observation.category</p>
                  </td>
               </tr>
               <tr>
                  <th rowspan="4">Medical History Collection Date</th>
                  <td>
                     <span title="The recordedDate represents when this particular Condition record was created in the system, which is often a system-generated date.">
                        <a style="font-weight:bold"
                           href="{{site.data.fhir.path}}condition-definitions.html#Condition.recordedDate">Condition.recordedDate</a>
                     </span>
                     <br/>0..1 <a href="{{site.data.fhir.path}}datatypes.html#dateTime">dateTime</a>
                  </td>
                  <td>
                     <p>Condition.recordedDate</p>
                  </td>
                  <td rowspan="4">
                     <span style="font-weight:bold"
                           title="The date on which the medical history was collected, represented in an unambiguous date format (e.g., DD-MON-YYYY).">
                        <a href="https://library.cdisc.org/api/mdr/cdashig/2-1/domains/MH/fields/MHDAT">MHDAT</a>
                     </span>
                     <br/>Core: O<br/>Type: Char</td>
                  <td rowspan="4">
                     <span style="font-weight:bold">
                        <a href="https://library.cdisc.org/api/mdr/sdtmig/3-2/datasets/MH/variables/MHDTC">MHDTC</a>
                     </span>
                     <br/>Core: Perm<br/>Type: Char<br/>values: ISO 8601</td>
                  <td rowspan="4"/>
               </tr>
               <tr>
                  <td>
                     <span title="The date on which the existence of the AdverseEvent was first recorded.">
                        <a style="font-weight:bold"
                           href="{{site.data.fhir.path}}adverseevent-definitions.html#AdverseEvent.recordedDate">AdverseEvent.recordedDate</a>
                     </span>
                     <br/>0..1 <a href="{{site.data.fhir.path}}datatypes.html#dateTime">dateTime</a>
                  </td>
                  <td>
                     <p>AdverseEvent.recordedDate</p>
                  </td>
               </tr>
               <tr>
                  <td>
                     <span title="The recordedDate represents when this particular AllergyIntolerance record was created in the system, which is often a system-generated date.">
                        <a style="font-weight:bold"
                           href="{{site.data.fhir.path}}allergyintolerance-definitions.html#AllergyIntolerance.recordedDate">AllergyIntolerance.recordedDate</a>
                     </span>
                     <br/>0..1 <a href="{{site.data.fhir.path}}datatypes.html#dateTime">dateTime</a>
                  </td>
                  <td>
                     <p>AllergyIntolerance.recordedDate</p>
                  </td>
               </tr>
               <tr>
                  <td>
                     <span title="The time or time-period the observed value is asserted as being true. For biological subjects - e.g. human patients - this is usually called the &#34;physiologically relevant time&#34;. This is usually either the time of the procedure or of specimen collection, but very often the source of the date/time is not known, only the date/time itself.">
                        <a style="font-weight:bold"
                           href="{{site.data.fhir.path}}observation-definitions.html#Observation.effectiveDateTime">Observation.effectiveDateTime</a>
                     </span>
                     <br/>0..1 <a href="{{site.data.fhir.path}}datatypes.html#dateTime">dateTime</a>
                  </td>
                  <td>
                     <p>Observaton.effectiveDateTime</p>
                  </td>
               </tr>
               <tr>
                  <th rowspan="4">MH Sponsor-Defined Identifier</th>
                  <td>
                     <span title="Business identifiers assigned to this condition by the performer or other systems which remain constant as the resource is updated and propagates from server to server.">
                        <a style="font-weight:bold"
                           href="{{site.data.fhir.path}}condition-definitions.html#Condition.identifier">Condition.identifier</a>
                     </span>
                     <br/>0..* <a href="{{site.data.fhir.path}}datatypes.html#Identifier">Identifier</a>
                  </td>
                  <td>
                     <p>Condition.identifier</p>
                  </td>
                  <td rowspan="4">
                     <span style="font-weight:bold"
                           title="A sponsor-defined identifier. In CDASH, This is typically used for preprinted or auto-generated numbers on the CRF, or any other type of identifier that does not already have a defined CDASH identifier field.">
                        <a href="https://library.cdisc.org/api/mdr/cdashig/2-1/domains/MH/fields/MHSPID">MHSPID</a>
                     </span>
                     <br/>Core: O<br/>Type: Char</td>
                  <td rowspan="4">
                     <span style="font-weight:bold"
                           title="Sponsor-defined reference number. Perhaps pre-printed on the CRF as an explicit line identifier or defined in the sponsor's operational database. Example: Line number on a Medical History page.">
                        <a href="https://library.cdisc.org/api/mdr/sdtmig/3-2/datasets/MH/variables/MHSPID">MHSPID</a>
                     </span>
                     <br/>Core: Perm<br/>Type: Char</td>
                  <td rowspan="4">If FHIR IDs are used for RELREC, then the sponsor should evaluate its use case as necessary prior to mapping.</td>
               </tr>
               <tr>
                  <td>
                     <span title="Business identifiers assigned to this adverse event by the performer or other systems which remain constant as the resource is updated and propagates from server to server.">
                        <a style="font-weight:bold"
                           href="{{site.data.fhir.path}}adverseevent-definitions.html#AdverseEvent.identifier">AdverseEvent.identifier</a>
                     </span>
                     <br/>0..1 <a href="{{site.data.fhir.path}}datatypes.html#Identifier">Identifier</a>
                  </td>
                  <td>
                     <p>AdverseEvent.identifier</p>
                  </td>
               </tr>
               <tr>
                  <td>
                     <span title="Business identifiers assigned to this AllergyIntolerance by the performer or other systems which remain constant as the resource is updated and propagates from server to server.">
                        <a style="font-weight:bold"
                           href="{{site.data.fhir.path}}allergyintolerance-definitions.html#AllergyIntolerance.identifier">AllergyIntolerance.identifier</a>
                     </span>
                     <br/>0..* <a href="{{site.data.fhir.path}}datatypes.html#Identifier">Identifier</a>
                  </td>
                  <td>
                     <p>AlergyIntolerance.identifier</p>
                  </td>
               </tr>
               <tr>
                  <td>
                     <span title="A unique identifier assigned to this observation.">
                        <a style="font-weight:bold"
                           href="{{site.data.fhir.path}}observation-definitions.html#Observation.identifier">Observation.identifier</a>
                     </span>
                     <br/>0..* <a href="{{site.data.fhir.path}}datatypes.html#Identifier">Identifier</a>
                  </td>
                  <td>
                     <p>Observation.identifier</p>
                  </td>
               </tr>
               <tr>
                  <th>Medical History Event Date Type</th>
                  <td>
                     <span style="font-weight:bold"
                           title="Specifies the aspect of the medical condition or event by which MHSTDTC and/or the MHENDTC is defined.">
                        <a href="https://library.cdisc.org/api/mdr/cdashig/2-1/domains/MH/fields/MHEVDTYP">MHEVDTYP</a>
                     </span>
                     <br/>Core: O<br/>Type: Char</td>
                  <td>
                     <span style="font-weight:bold">SUPPMH.QVAL</span>
                  </td>
                  <td/>
               </tr>
               <tr>
                  <th rowspan="4">Reported Term for the Medical History</th>
                  <td>
                     <span title="Identification of the condition, problem or diagnosis.">
                        <a style="font-weight:bold"
                           href="{{site.data.fhir.path}}condition-definitions.html#Condition.code">Condition.code</a>
                     </span>
                     <br/>0..1 <a href="{{site.data.fhir.path}}datatypes.html#CodeableConcept">CodeableConcept</a>
                     <br/>Binding: <a href="http://hl7.org/fhir/ValueSet/condition-code">ConditionKind</a> 
                     <a href="{{site.data.fhir.path}}terminologies.html#example">example</a>
                  </td>
                  <td>
                     <p>Condition.code</p>
                  </td>
                  <td rowspan="4">
                     <span style="font-weight:bold"
                           title="The reported or prespecified name of the medical condition or event.">
                        <a href="https://library.cdisc.org/api/mdr/cdashig/2-1/domains/MH/fields/MHTERM">MHTERM</a>
                     </span>
                     <br/>Core: HR<br/>Type: Char</td>
                  <td rowspan="4">
                     <span style="font-weight:bold"
                           title="Verbatim or preprinted CRF term for the medical condition or event.">
                        <a href="https://library.cdisc.org/api/mdr/sdtmig/3-2/datasets/MH/variables/MHTERM">MHTERM</a>
                     </span>
                     <br/>Core: Req<br/>Type: Char</td>
                  <td rowspan="4"/>
               </tr>
               <tr>
                  <td>
                     <span title="This element defines the specific type of event that occurred or that was prevented from occurring.">
                        <a style="font-weight:bold"
                           href="{{site.data.fhir.path}}adverseevent-definitions.html#AdverseEvent.event">AdverseEvent.event</a>
                     </span>
                     <br/>0..1 <a href="{{site.data.fhir.path}}datatypes.html#CodeableConcept">CodeableConcept</a>
                     <br/>Binding: <a href="http://hl7.org/fhir/ValueSet/adverse-event-type">AdverseEventType</a> 
                     <a href="{{site.data.fhir.path}}terminologies.html#example">example</a>
                  </td>
                  <td>
                     <p>AdverseEvent.event</p>
                  </td>
               </tr>
               <tr>
                  <td>
                     <span title="Code for an allergy or intolerance statement (either a positive or a negated/excluded statement).  This may be a code for a substance or pharmaceutical product that is considered to be responsible for the adverse reaction risk (e.g., &#34;Latex&#34;), an allergy or intolerance condition (e.g., &#34;Latex allergy&#34;), or a negated/excluded code for a specific substance or class (e.g., &#34;No latex allergy&#34;) or a general or categorical negated statement (e.g.,  &#34;No known allergy&#34;, &#34;No known drug allergies&#34;).  Note: the substance for a specific reaction may be different from the substance identified as the cause of the risk, but it must be consistent with it. For instance, it may be a more specific substance (e.g. a brand medication) or a composite product that includes the identified substance. It must be clinically safe to only process the 'code' and ignore the 'reaction.substance'.  If a receiving system is unable to confirm that AllergyIntolerance.reaction.substance falls within the semantic scope of AllergyIntolerance.code, then the receiving system should ignore AllergyIntolerance.reaction.substance.">
                        <a style="font-weight:bold"
                           href="{{site.data.fhir.path}}allergyintolerance-definitions.html#AllergyIntolerance.code">AllergyIntolerance.code</a>
                     </span>
                     <br/>0..1 <a href="{{site.data.fhir.path}}datatypes.html#CodeableConcept">CodeableConcept</a>
                     <br/>Binding: <a href="http://hl7.org/fhir/ValueSet/allergyintolerance-code">AllergyIntoleranceCode</a> 
                     <a href="{{site.data.fhir.path}}terminologies.html#example">example</a>
                  </td>
                  <td>
                     <p>AllergyIntolerance.code</p>
                  </td>
               </tr>
               <tr>
                  <td>
                     <span title="Describes what was observed. Sometimes this is called the observation &#34;name&#34;.">
                        <a style="font-weight:bold"
                           href="{{site.data.fhir.path}}observation-definitions.html#Observation.code">Observation.code</a>
                     </span>
                     <br/>1..1 <a href="{{site.data.fhir.path}}datatypes.html#CodeableConcept">CodeableConcept</a>
                     <br/>Binding: <a href="http://hl7.org/fhir/ValueSet/observation-codes">ObservationCode</a> 
                     <a href="{{site.data.fhir.path}}terminologies.html#example">example</a>
                  </td>
                  <td>
                     <p>Observation.code</p>
                  </td>
               </tr>
               <tr>
                  <th rowspan="3">Medical History Occurrence</th>
                  <td>
                     <span title="The verification status to support the clinical status of the condition.">
                        <a style="font-weight:bold"
                           href="{{site.data.fhir.path}}condition-definitions.html#Condition.verificationStatus">Condition.verificationStatus</a>
                     </span>
                     <br/>0..1 <a href="{{site.data.fhir.path}}datatypes.html#CodeableConcept">CodeableConcept</a> con-3, con-5<br/>Binding: <a href="http://hl7.org/fhir/ValueSet/condition-ver-status">ConditionVerificationStatus</a> 
                     <a href="{{site.data.fhir.path}}terminologies.html#required">required</a>
                  </td>
                  <td>
                     <p>Condition.verificationStatus.where(%this IN {'refuted'|'entered-in-error'})</p>
                  </td>
                  <td rowspan="3">
                     <span style="font-weight:bold"
                           title="An indication whether a prespecified medical condition/event or a group of medical conditions/events occurred when information about the occurrence of a specific event is solicited.">
                        <a href="https://library.cdisc.org/api/mdr/cdashig/2-1/domains/MH/fields/MHOCCUR">MHOCCUR</a>
                     </span>
                     <br/>Core: O<br/>Type: Char</td>
                  <td rowspan="3">
                     <span style="font-weight:bold"
                           title="Used when the occurrence of specific medical history conditions is solicited to indicate whether or not (Y/N) a medical condition (MHTERM) had ever occurred. Values are null for spontaneously reported events.">
                        <a href="https://library.cdisc.org/api/mdr/sdtmig/3-2/datasets/MH/variables/MHOCCUR">MHOCCUR</a>
                     </span>
                     <br/>Core: Perm<br/>Type: Char</td>
                  <td rowspan="3">In general in FHIR, records of the absence of Conditions are not normally captured.  If the information revolves around "has the patient had X", that would be accomplished through a Questionnaire.Response</td>
               </tr>
               <tr>
                  <td>
                     <span title="Assertion about certainty associated with the propensity, or potential risk, of a reaction to the identified substance (including pharmaceutical product).">
                        <a style="font-weight:bold"
                           href="{{site.data.fhir.path}}allergyintolerance-definitions.html#AllergyIntolerance.verificationStatus">AllergyIntolerance.verificationStatus</a>
                     </span>
                     <br/>0..1 <a href="{{site.data.fhir.path}}datatypes.html#CodeableConcept">CodeableConcept</a> ait-1, ait-2<br/>Binding: <a href="http://hl7.org/fhir/ValueSet/allergyintolerance-verification">AllergyIntoleranceVerificationStatus</a> 
                     <a href="{{site.data.fhir.path}}terminologies.html#required">required</a>
                  </td>
                  <td>
                     <p>(AllergyIntolerance.verificationStatus in {'unconfirmed'|'confirmed'|'refuted'|'entered-in-error'}).not()</p>
                  </td>
               </tr>
               <tr>
                  <td>
                     <span title="The time or time-period the observed value is asserted as being true. For biological subjects - e.g. human patients - this is usually called the &#34;physiologically relevant time&#34;. This is usually either the time of the procedure or of specimen collection, but very often the source of the date/time is not known, only the date/time itself.">
                        <a style="font-weight:bold"
                           href="{{site.data.fhir.path}}observation-definitions.html#Observation.effectiveDateTime">Observation.effectiveDateTime</a>
                     </span>
                     <br/>0..1 <a href="{{site.data.fhir.path}}datatypes.html#dateTime">dateTime</a>
                  </td>
                  <td>
                     <p>Observation.effectiveDateTime</p>
                  </td>
               </tr>
               <tr>
                  <th>Medical History Event prespecified</th>
                  <td colspan="2" style="background-color:LightGray">Not expect to receive these from the site.  How this is populated in the sponsor's database would be up to the sponsor. If available, this would need to be an extension.  The notion of pre-specified is part of the questionnaire</td>
                  <td>
                     <span style="font-weight:bold"
                           title="An indication that a specific event, or group of events, are prespecified on a CRF.">
                        <a href="https://library.cdisc.org/api/mdr/cdashig/2-1/domains/MH/fields/MHPRESP">MHPRESP</a>
                     </span>
                     <br/>Core: O<br/>Type: Char</td>
                  <td>
                     <span style="font-weight:bold"
                           title="A value of &#34;Y&#34; indicates that this medical history event was pre-specified on the CRF. Values are null for spontaneously reported events (i.e., those collected as free-text verbatim terms)">
                        <a href="https://library.cdisc.org/api/mdr/sdtmig/3-2/datasets/MH/variables/MHPRESP">MHPRESP</a>
                     </span>
                     <br/>Core: Perm<br/>Type: Char</td>
                  <td/>
               </tr>
               <tr>
                  <th>Prior Medical History Event</th>
                  <td colspan="2" style="background-color:LightGray">This can be determined from either the onsetDateTime and/or the abatementDateTime.  If it were to be flagged on the record, it would need to be an extension on the extension that links to the study.<br/>
                     <br/>The sponsor may determine this, based on an anchor point in the protocol.</td>
                  <td>
                     <span style="font-weight:bold"
                           title="An indication whether the event occurred prior to study start.">
                        <a href="https://library.cdisc.org/api/mdr/cdashig/2-1/domains/MH/fields/MHPRIOR">MHPRIOR</a>
                     </span>
                     <br/>Core: O<br/>Type: Char</td>
                  <td>
                     <span style="font-weight:bold">MHSTRTPT*</span>
                     <span style="font-weight:bold">MHSTRF*</span>
                  </td>
                  <td/>
               </tr>
               <tr>
                  <th rowspan="2">Ongoing Medical History Event</th>
                  <td>
                     <span title="The clinical status of the condition.">
                        <a style="font-weight:bold"
                           href="{{site.data.fhir.path}}condition-definitions.html#Condition.clinicalStatus">Condition.clinicalStatus</a>
                     </span>
                     <br/>0..1 <a href="{{site.data.fhir.path}}datatypes.html#CodeableConcept">CodeableConcept</a> con-3, con-4, con-5<br/>Binding: <a href="http://hl7.org/fhir/ValueSet/condition-clinical">ConditionClinicalStatus</a> 
                     <a href="{{site.data.fhir.path}}terminologies.html#required">required</a>
                  </td>
                  <td>
                     <p>Condition.clinicalStatus</p>
                  </td>
                  <td rowspan="2">
                     <span style="font-weight:bold"
                           title="Indication the medical condition or event is ongoing when no end date is provided.">
                        <a href="https://library.cdisc.org/api/mdr/cdashig/2-1/domains/MH/fields/MHONGO">MHONGO</a>
                     </span>
                     <br/>Core: O<br/>Type: Char</td>
                  <td rowspan="2">
                     <span style="font-weight:bold"
                           title="Describes the end of the event relative to the sponsor-defined reference period. The sponsor-defined reference period is a continuous period of time defined by a discrete starting point and a discrete ending point (represented by RFSTDTC and RFENDTC in Demographics)">
                        <a href="https://library.cdisc.org/api/mdr/sdtmig/3-2/datasets/MH/variables/MHENRF">MHENRF</a>
                     </span>
                     <br/>Core: Perm<br/>Type: Char<span style="font-weight:bold"
                           title="Identifies the end of the event as being before or after the reference time point defined by variable MHENTPT.">
                        <a href="https://library.cdisc.org/api/mdr/sdtmig/3-2/datasets/MH/variables/MHENRTPT">MHENRTPT</a>
                     </span>
                     <br/>Core: Perm<br/>Type: Char<br/>values: AFTER, BEFORE, COINCIDENT, ONGOING, U</td>
                  <td rowspan="2"/>
               </tr>
               <tr>
                  <td>
                     <span title="Describes the type of outcome from the adverse event.">
                        <a style="font-weight:bold"
                           href="{{site.data.fhir.path}}adverseevent-definitions.html#AdverseEvent.outcome">AdverseEvent.outcome</a>
                     </span>
                     <br/>0..1 <a href="{{site.data.fhir.path}}datatypes.html#CodeableConcept">CodeableConcept</a>
                     <br/>Binding: <a href="http://hl7.org/fhir/ValueSet/adverse-event-outcome">AdverseEventOutcome</a> 
                     <a href="{{site.data.fhir.path}}terminologies.html#required">required</a>
                  </td>
                  <td>
                     <p>AdverseEvent.outcome</p>
                  </td>
               </tr>
               <tr>
                  <th rowspan="4">Medical History Event Start Date</th>
                  <td>
                     <span title="Estimated or actual date or date-time  the condition began, in the opinion of the clinician.">
                        <a style="font-weight:bold"
                           href="{{site.data.fhir.path}}condition-definitions.html#Condition.onsetDateTime">Condition.onsetDateTime</a>
                     </span>
                     <br/>0..1 <a href="{{site.data.fhir.path}}datatypes.html#dateTime">dateTime</a>
                  </td>
                  <td>
                     <p>Condition.onset.onsetDateTime</p>
                  </td>
                  <td rowspan="4">
                     <span style="font-weight:bold"
                           title="The start date of medical history event or condition represented in an unambiguous date format (e.g., DD-MON-YYYY).">
                        <a href="https://library.cdisc.org/api/mdr/cdashig/2-1/domains/MH/fields/MHSTDAT">MHSTDAT</a>
                     </span>
                     <br/>Core: O<br/>Type: Char</td>
                  <td rowspan="4">
                     <span style="font-weight:bold">
                        <a href="https://library.cdisc.org/api/mdr/sdtmig/3-2/datasets/MH/variables/MHSTDTC">MHSTDTC</a>
                     </span>
                     <br/>Core: Perm<br/>Type: Char<br/>values: ISO 8601</td>
                  <td rowspan="4"/>
               </tr>
               <tr>
                  <td>
                     <span title="The date (and perhaps time) when the adverse event occurred.">
                        <a style="font-weight:bold"
                           href="{{site.data.fhir.path}}adverseevent-definitions.html#AdverseEvent.date">AdverseEvent.date</a>
                     </span>
                     <br/>0..1 <a href="{{site.data.fhir.path}}datatypes.html#dateTime">dateTime</a>
                  </td>
                  <td>
                     <p>AdverseEvent.date</p>
                  </td>
               </tr>
               <tr>
                  <td>
                     <span title="Estimated or actual date,  date-time, or age when allergy or intolerance was identified.">
                        <a style="font-weight:bold"
                           href="{{site.data.fhir.path}}allergyintolerance-definitions.html#AllergyIntolerance.onsetDateTime">AllergyIntolerance.onsetDateTime</a>
                     </span>
                     <br/>0..1 <a href="{{site.data.fhir.path}}datatypes.html#dateTime">dateTime</a>
                  </td>
                  <td>
                     <p>AllergyIntolerance.onsetDateTime</p>
                  </td>
               </tr>
               <tr>
                  <td>
                     <span title="The time or time-period the observed value is asserted as being true. For biological subjects - e.g. human patients - this is usually called the &#34;physiologically relevant time&#34;. This is usually either the time of the procedure or of specimen collection, but very often the source of the date/time is not known, only the date/time itself.">
                        <a style="font-weight:bold"
                           href="{{site.data.fhir.path}}observation-definitions.html#Observation.effectiveDateTime">Observation.effectiveDateTime</a>
                     </span>
                     <br/>0..1 <a href="{{site.data.fhir.path}}datatypes.html#dateTime">dateTime</a>
                  </td>
                  <td>
                     <p>Observation.effectiveDateTime</p>
                  </td>
               </tr>
               <tr>
                  <th>Medical History Event End Date</th>
                  <td>
                     <span title="The date or estimated date that the condition resolved or went into remission. This is called &#34;abatement&#34; because of the many overloaded connotations associated with &#34;remission&#34; or &#34;resolution&#34; - Conditions are never really resolved, but they can abate.">
                        <a style="font-weight:bold"
                           href="{{site.data.fhir.path}}condition-definitions.html#Condition.abatementDateTime">Condition.abatementDateTime</a>
                     </span>
                     <br/>0..1 <a href="{{site.data.fhir.path}}datatypes.html#dateTime">dateTime</a> con-4</td>
                  <td>
                     <p>Condition.abatementDateTime</p>
                  </td>
                  <td>
                     <span style="font-weight:bold"
                           title="The end date of medical history event or condition represented in an unambiguous date format (e.g., DD-MON-YYYY).">
                        <a href="https://library.cdisc.org/api/mdr/cdashig/2-1/domains/MH/fields/MHENDAT">MHENDAT</a>
                     </span>
                     <br/>Core: O<br/>Type: Char</td>
                  <td>
                     <span style="font-weight:bold">
                        <a href="https://library.cdisc.org/api/mdr/sdtmig/3-2/datasets/MH/variables/MHENDTC">MHENDTC</a>
                     </span>
                     <br/>Core: Perm<br/>Type: Char<br/>values: ISO 8601</td>
                  <td/>
               </tr>
               <tr>
                  <th rowspan="4">Medical History Event Location</th>
                  <td>
                     <span title="The anatomical location where this condition manifests itself.">
                        <a style="font-weight:bold"
                           href="{{site.data.fhir.path}}condition-definitions.html#Condition.bodySite">Condition.bodySite</a>
                     </span>
                     <br/>0..* <a href="{{site.data.fhir.path}}datatypes.html#CodeableConcept">CodeableConcept</a>
                     <br/>Binding: <a href="http://hl7.org/fhir/ValueSet/body-site">BodySite</a> 
                     <a href="{{site.data.fhir.path}}terminologies.html#example">example</a>
                  </td>
                  <td>
                     <p>Condition.bodysite</p>
                  </td>
                  <td rowspan="4">
                     <span style="font-weight:bold"
                           title="A description of the anatomical location relevant for the medical condition or event.">
                        <a href="https://library.cdisc.org/api/mdr/cdashig/2-1/domains/MH/fields/MHLOC">MHLOC</a>
                     </span>
                     <br/>Core: O<br/>Type: Char</td>
                  <td rowspan="4">
                     <span style="font-weight:bold">MHLOC*</span>
                  </td>
                  <td rowspan="4"/>
               </tr>
               <tr>
                  <td>
                     <span title="The anatomical location where this condition manifests itself.">
                        <a style="font-weight:bold"
                           href="{{site.data.fhir.path}}condition-definitions.html#Condition.bodySite">Condition.bodySite</a>
                     </span>
                     <br/>0..* <a href="{{site.data.fhir.path}}datatypes.html#CodeableConcept">CodeableConcept</a>
                     <br/>Binding: <a href="http://hl7.org/fhir/ValueSet/body-site">BodySite</a> 
                     <a href="{{site.data.fhir.path}}terminologies.html#example">example</a>
                  </td>
                  <td>
                     <p>AdverseEvent.resultingCondition.resolve().bodySite</p>
                  </td>
               </tr>
               <tr>
                  <td>
                     <span title="Indicates the site on the subject's body where the observation was made (i.e. the target site).">
                        <a style="font-weight:bold"
                           href="{{site.data.fhir.path}}observation-definitions.html#Observation.bodySite">Observation.bodySite</a>
                     </span>
                     <br/>0..1 <a href="{{site.data.fhir.path}}datatypes.html#CodeableConcept">CodeableConcept</a>
                     <br/>Binding: <a href="http://hl7.org/fhir/ValueSet/body-site">BodySite</a> 
                     <a href="{{site.data.fhir.path}}terminologies.html#example">example</a>
                  </td>
                  <td>
                     <p>Observation.bodySite</p>
                     <p>Observation.specimen.resolve().collection.bodySite</p>
                  </td>
               </tr>
               <tr>
                  <td>
                     <span title="Anatomical location from which the specimen was collected (if subject is a patient). This is the target site.  This element is not used for environmental specimens.">
                        <a style="font-weight:bold"
                           href="{{site.data.fhir.path}}specimen-definitions.html#Specimen.collection.bodySite">Specimen.collection.bodySite</a>
                     </span>
                     <br/>0..1 <a href="{{site.data.fhir.path}}datatypes.html#CodeableConcept">CodeableConcept</a>
                     <br/>Binding: <a href="http://hl7.org/fhir/ValueSet/body-site">BodySite</a> 
                     <a href="{{site.data.fhir.path}}terminologies.html#example">example</a>
                  </td>
                  <td>
                     <p>Observation.bodySite</p>
                     <p>Observation.specimen.resolve().collection.bodySite</p>
                  </td>
               </tr>
               <tr>
                  <th>Medical History Event Laterality</th>
                  <td colspan="2" style="background-color:LightGray">There should be a standard extension defined that allows Condition, AdverseEvent, Observation and Specimen to point to a BodyStructure.  Laterality is not relevant for allergies.</td>
                  <td>
                     <span style="font-weight:bold"
                           title="Qualifier for anatomical location further detailing the side of the body relevant for the event.">
                        <a href="https://library.cdisc.org/api/mdr/cdashig/2-1/domains/MH/fields/MHLAT">MHLAT</a>
                     </span>
                     <br/>Core: O<br/>Type: Char</td>
                  <td>
                     <span style="font-weight:bold">MHLAT*</span>
                  </td>
                  <td/>
               </tr>
               <tr>
                  <th>Medical History Directionality</th>
                  <td colspan="2" style="background-color:LightGray">There should be a standard extension defined that allows Condition, AdverseEvent, Observation and Specimen to point to a BodyStructure.  Directionality is not relevant for allergies.</td>
                  <td>
                     <span style="font-weight:bold"
                           title="Qualifier further detailing the position of the anatomical location relative to the center of the body, organ, or specimen.">
                        <a href="https://library.cdisc.org/api/mdr/cdashig/2-1/domains/MH/fields/MHDIR">MHDIR</a>
                     </span>
                     <br/>Core: O<br/>Type: Char</td>
                  <td>
                     <span style="font-weight:bold">MHDIR*</span>
                  </td>
                  <td/>
               </tr>
               <tr>
                  <th>MH Event Location Portion or Totality</th>
                  <td colspan="2" style="background-color:LightGray">This would likely be an extension on Condition.  It is not relevant for the other resources</td>
                  <td>
                     <span style="font-weight:bold"
                           title="Qualifier for anatomical location further detailing the distribution, which means arrangement of, apportioning of.">
                        <a href="https://library.cdisc.org/api/mdr/cdashig/2-1/domains/MH/fields/MHPORTOT">MHPORTOT</a>
                     </span>
                     <br/>Core: O<br/>Type: Char</td>
                  <td>
                     <span style="font-weight:bold">MHPORTOT*</span>
                  </td>
                  <td/>
               </tr>
               <tr>
                  <th>MH Modified Reported Term</th>
                  <td>
                     <span style="font-weight:bold"
                           title="If the value for MHTERM is modified to facilitate coding, then MHMODIFY will contain the modified text.">
                        <a href="https://library.cdisc.org/api/mdr/cdashig/2-1/domains/MH/fields/MHMODIFY">MHMODIFY</a>
                     </span>
                     <br/>Core: O<br/>Type: Char</td>
                  <td>
                     <span style="font-weight:bold"
                           title="If MHTERM is modified to facilitate coding, then MHMODIFY will contain the modified text.">
                        <a href="https://library.cdisc.org/api/mdr/sdtmig/3-2/datasets/MH/variables/MHMODIFY">MHMODIFY</a>
                     </span>
                     <br/>Core: Perm<br/>Type: Char</td>
                  <td>In most cases, no MedDRA codes will be present in source data and all coding levels and displays will be added by the sponsor.  However, FHIR allows multiple codings and therefore all of these codes *can* be conveyed in FHIR if the data source chooses to capture them.  Standard code system URLs should be defined for each of the MedDRA levels.  If MedDRA is considered a single code system, then the consumer will be responsible for distinguishing which codes represent which levels by looking up the received code.</td>
               </tr>
               <tr>
                  <th rowspan="4">MH Dictionary-Derived Term</th>
                  <td>
                     <span title="Identification of the condition, problem or diagnosis.">
                        <a style="font-weight:bold"
                           href="{{site.data.fhir.path}}condition-definitions.html#Condition.code">Condition.code</a>
                     </span>
                     <br/>0..1 <a href="{{site.data.fhir.path}}datatypes.html#CodeableConcept">CodeableConcept</a>
                     <br/>Binding: <a href="http://hl7.org/fhir/ValueSet/condition-code">ConditionKind</a> 
                     <a href="{{site.data.fhir.path}}terminologies.html#example">example</a>
                  </td>
                  <td>
                     <p>Condition.code.coding.where(system=%MHDECOD).code</p>
                  </td>
                  <td rowspan="4">
                     <span style="font-weight:bold"
                           title="The dictionary text description of MHTERM or the modified topic variable (MH MODIFY), if applicable.">
                        <a href="https://library.cdisc.org/api/mdr/cdashig/2-1/domains/MH/fields/MHDECOD">MHDECOD</a>
                     </span>
                     <br/>Core: O<br/>Type: Char</td>
                  <td rowspan="4">
                     <span style="font-weight:bold"
                           title="Dictionary-derived text description of MHTERM or MHMODIFY. Equivalent to the Preferred Term (PT in MedDRA). The sponsor is expected to provide the dictionary name and version used to map the terms utilizing the define.xml external codelist attributes.">
                        <a href="https://library.cdisc.org/api/mdr/sdtmig/3-2/datasets/MH/variables/MHDECOD">MHDECOD</a>
                     </span>
                     <br/>Core: Perm<br/>Type: Char</td>
                  <td rowspan="4">In most cases, no MedDRA codes will be present in source data and all coding levels and displays will be added by the sponsor.  However, FHIR allows multiple codings and therefore all of these codes *can* be conveyed in FHIR if the data source chooses to capture them.  Standard code system URLs should be defined for each of the MedDRA levels.  If MedDRA is considered a single code system, then the consumer will be responsible for distinguishing which codes represent which levels by looking up the received code.</td>
               </tr>
               <tr>
                  <td>
                     <span title="This element defines the specific type of event that occurred or that was prevented from occurring.">
                        <a style="font-weight:bold"
                           href="{{site.data.fhir.path}}adverseevent-definitions.html#AdverseEvent.event">AdverseEvent.event</a>
                     </span>
                     <br/>0..1 <a href="{{site.data.fhir.path}}datatypes.html#CodeableConcept">CodeableConcept</a>
                     <br/>Binding: <a href="http://hl7.org/fhir/ValueSet/adverse-event-type">AdverseEventType</a> 
                     <a href="{{site.data.fhir.path}}terminologies.html#example">example</a>
                  </td>
                  <td>
                     <p>AdverseEvent.event.coding.where(system=%MHDECOD).code</p>
                  </td>
               </tr>
               <tr>
                  <td>
                     <span title="Code for an allergy or intolerance statement (either a positive or a negated/excluded statement).  This may be a code for a substance or pharmaceutical product that is considered to be responsible for the adverse reaction risk (e.g., &#34;Latex&#34;), an allergy or intolerance condition (e.g., &#34;Latex allergy&#34;), or a negated/excluded code for a specific substance or class (e.g., &#34;No latex allergy&#34;) or a general or categorical negated statement (e.g.,  &#34;No known allergy&#34;, &#34;No known drug allergies&#34;).  Note: the substance for a specific reaction may be different from the substance identified as the cause of the risk, but it must be consistent with it. For instance, it may be a more specific substance (e.g. a brand medication) or a composite product that includes the identified substance. It must be clinically safe to only process the 'code' and ignore the 'reaction.substance'.  If a receiving system is unable to confirm that AllergyIntolerance.reaction.substance falls within the semantic scope of AllergyIntolerance.code, then the receiving system should ignore AllergyIntolerance.reaction.substance.">
                        <a style="font-weight:bold"
                           href="{{site.data.fhir.path}}allergyintolerance-definitions.html#AllergyIntolerance.code">AllergyIntolerance.code</a>
                     </span>
                     <br/>0..1 <a href="{{site.data.fhir.path}}datatypes.html#CodeableConcept">CodeableConcept</a>
                     <br/>Binding: <a href="http://hl7.org/fhir/ValueSet/allergyintolerance-code">AllergyIntoleranceCode</a> 
                     <a href="{{site.data.fhir.path}}terminologies.html#example">example</a>
                  </td>
                  <td>
                     <p>AllergyIntolerance.code.coding.where(system=%MHDECOD).code</p>
                  </td>
               </tr>
               <tr>
                  <td>
                     <span title="Describes what was observed. Sometimes this is called the observation &#34;name&#34;.">
                        <a style="font-weight:bold"
                           href="{{site.data.fhir.path}}observation-definitions.html#Observation.code">Observation.code</a>
                     </span>
                     <br/>1..1 <a href="{{site.data.fhir.path}}datatypes.html#CodeableConcept">CodeableConcept</a>
                     <br/>Binding: <a href="http://hl7.org/fhir/ValueSet/observation-codes">ObservationCode</a> 
                     <a href="{{site.data.fhir.path}}terminologies.html#example">example</a>
                  </td>
                  <td>
                     <p>Observation.code.coding.where(system=%MHDECOD).code</p>
                  </td>
               </tr>
               <tr>
                  <th rowspan="4">Medical History Event Lowest Level Term</th>
                  <td>
                     <span title="Identification of the condition, problem or diagnosis.">
                        <a style="font-weight:bold"
                           href="{{site.data.fhir.path}}condition-definitions.html#Condition.code">Condition.code</a>
                     </span>
                     <br/>0..1 <a href="{{site.data.fhir.path}}datatypes.html#CodeableConcept">CodeableConcept</a>
                     <br/>Binding: <a href="http://hl7.org/fhir/ValueSet/condition-code">ConditionKind</a> 
                     <a href="{{site.data.fhir.path}}terminologies.html#example">example</a>
                  </td>
                  <td>
                     <p>Condition.code.coding.where(system=%MHLLT).display</p>
                  </td>
                  <td rowspan="4">
                     <span style="font-weight:bold"
                           title="MedDRA Dictionary text description of the Lowest Level Term.">
                        <a href="https://library.cdisc.org/api/mdr/cdashig/2-1/domains/MH/fields/MHLLT">MHLLT</a>
                     </span>
                     <br/>Core: O<br/>Type: Char</td>
                  <td rowspan="4">
                     <span style="font-weight:bold">MHLLT*</span>
                  </td>
                  <td rowspan="4">In most cases, no MedDRA codes will be present in source data and all coding levels and displays will be added by the sponsor.  However, FHIR allows multiple codings and therefore all of these codes *can* be conveyed in FHIR if the data source chooses to capture them.  Standard code system URLs should be defined for each of the MedDRA levels.  If MedDRA is considered a single code system, then the consumer will be responsible for distinguishing which codes represent which levels by looking up the received code.</td>
               </tr>
               <tr>
                  <td>
                     <span title="This element defines the specific type of event that occurred or that was prevented from occurring.">
                        <a style="font-weight:bold"
                           href="{{site.data.fhir.path}}adverseevent-definitions.html#AdverseEvent.event">AdverseEvent.event</a>
                     </span>
                     <br/>0..1 <a href="{{site.data.fhir.path}}datatypes.html#CodeableConcept">CodeableConcept</a>
                     <br/>Binding: <a href="http://hl7.org/fhir/ValueSet/adverse-event-type">AdverseEventType</a> 
                     <a href="{{site.data.fhir.path}}terminologies.html#example">example</a>
                  </td>
                  <td>
                     <p>AdverseEvent.event.coding.where(system=%MHLLT).display</p>
                  </td>
               </tr>
               <tr>
                  <td>
                     <span title="Code for an allergy or intolerance statement (either a positive or a negated/excluded statement).  This may be a code for a substance or pharmaceutical product that is considered to be responsible for the adverse reaction risk (e.g., &#34;Latex&#34;), an allergy or intolerance condition (e.g., &#34;Latex allergy&#34;), or a negated/excluded code for a specific substance or class (e.g., &#34;No latex allergy&#34;) or a general or categorical negated statement (e.g.,  &#34;No known allergy&#34;, &#34;No known drug allergies&#34;).  Note: the substance for a specific reaction may be different from the substance identified as the cause of the risk, but it must be consistent with it. For instance, it may be a more specific substance (e.g. a brand medication) or a composite product that includes the identified substance. It must be clinically safe to only process the 'code' and ignore the 'reaction.substance'.  If a receiving system is unable to confirm that AllergyIntolerance.reaction.substance falls within the semantic scope of AllergyIntolerance.code, then the receiving system should ignore AllergyIntolerance.reaction.substance.">
                        <a style="font-weight:bold"
                           href="{{site.data.fhir.path}}allergyintolerance-definitions.html#AllergyIntolerance.code">AllergyIntolerance.code</a>
                     </span>
                     <br/>0..1 <a href="{{site.data.fhir.path}}datatypes.html#CodeableConcept">CodeableConcept</a>
                     <br/>Binding: <a href="http://hl7.org/fhir/ValueSet/allergyintolerance-code">AllergyIntoleranceCode</a> 
                     <a href="{{site.data.fhir.path}}terminologies.html#example">example</a>
                  </td>
                  <td>
                     <p>AllergyIntolerance.code.coding.where(system=%MHLLT).display</p>
                  </td>
               </tr>
               <tr>
                  <td>
                     <span title="Describes what was observed. Sometimes this is called the observation &#34;name&#34;.">
                        <a style="font-weight:bold"
                           href="{{site.data.fhir.path}}observation-definitions.html#Observation.code">Observation.code</a>
                     </span>
                     <br/>1..1 <a href="{{site.data.fhir.path}}datatypes.html#CodeableConcept">CodeableConcept</a>
                     <br/>Binding: <a href="http://hl7.org/fhir/ValueSet/observation-codes">ObservationCode</a> 
                     <a href="{{site.data.fhir.path}}terminologies.html#example">example</a>
                  </td>
                  <td>
                     <p>Observation.code.coding.where(system=%MHLLT).display</p>
                  </td>
               </tr>
               <tr>
                  <th rowspan="4">MH Event Lowest Level Term Code</th>
                  <td>
                     <span title="Identification of the condition, problem or diagnosis.">
                        <a style="font-weight:bold"
                           href="{{site.data.fhir.path}}condition-definitions.html#Condition.code">Condition.code</a>
                     </span>
                     <br/>0..1 <a href="{{site.data.fhir.path}}datatypes.html#CodeableConcept">CodeableConcept</a>
                     <br/>Binding: <a href="http://hl7.org/fhir/ValueSet/condition-code">ConditionKind</a> 
                     <a href="{{site.data.fhir.path}}terminologies.html#example">example</a>
                  </td>
                  <td>
                     <p>Condition.code.coding.where(system=%MHLLT).code</p>
                  </td>
                  <td rowspan="4">
                     <span style="font-weight:bold" title="MedDRA Lowest Level Term code.">
                        <a href="https://library.cdisc.org/api/mdr/cdashig/2-1/domains/MH/fields/MHLLTCD">MHLLTCD</a>
                     </span>
                     <br/>Core: O<br/>Type: Num</td>
                  <td rowspan="4">
                     <span style="font-weight:bold">MHLLTCD*</span>
                  </td>
                  <td rowspan="4">In most cases, no MedDRA codes will be present in source data and all coding levels and displays will be added by the sponsor.  However, FHIR allows multiple codings and therefore all of these codes *can* be conveyed in FHIR if the data source chooses to capture them.  Standard code system URLs should be defined for each of the MedDRA levels.  If MedDRA is considered a single code system, then the consumer will be responsible for distinguishing which codes represent which levels by looking up the received code.</td>
               </tr>
               <tr>
                  <td>
                     <span title="This element defines the specific type of event that occurred or that was prevented from occurring.">
                        <a style="font-weight:bold"
                           href="{{site.data.fhir.path}}adverseevent-definitions.html#AdverseEvent.event">AdverseEvent.event</a>
                     </span>
                     <br/>0..1 <a href="{{site.data.fhir.path}}datatypes.html#CodeableConcept">CodeableConcept</a>
                     <br/>Binding: <a href="http://hl7.org/fhir/ValueSet/adverse-event-type">AdverseEventType</a> 
                     <a href="{{site.data.fhir.path}}terminologies.html#example">example</a>
                  </td>
                  <td>
                     <p>AdverseEvent.event.coding.where(system=%MHLLT).code</p>
                  </td>
               </tr>
               <tr>
                  <td>
                     <span title="Code for an allergy or intolerance statement (either a positive or a negated/excluded statement).  This may be a code for a substance or pharmaceutical product that is considered to be responsible for the adverse reaction risk (e.g., &#34;Latex&#34;), an allergy or intolerance condition (e.g., &#34;Latex allergy&#34;), or a negated/excluded code for a specific substance or class (e.g., &#34;No latex allergy&#34;) or a general or categorical negated statement (e.g.,  &#34;No known allergy&#34;, &#34;No known drug allergies&#34;).  Note: the substance for a specific reaction may be different from the substance identified as the cause of the risk, but it must be consistent with it. For instance, it may be a more specific substance (e.g. a brand medication) or a composite product that includes the identified substance. It must be clinically safe to only process the 'code' and ignore the 'reaction.substance'.  If a receiving system is unable to confirm that AllergyIntolerance.reaction.substance falls within the semantic scope of AllergyIntolerance.code, then the receiving system should ignore AllergyIntolerance.reaction.substance.">
                        <a style="font-weight:bold"
                           href="{{site.data.fhir.path}}allergyintolerance-definitions.html#AllergyIntolerance.code">AllergyIntolerance.code</a>
                     </span>
                     <br/>0..1 <a href="{{site.data.fhir.path}}datatypes.html#CodeableConcept">CodeableConcept</a>
                     <br/>Binding: <a href="http://hl7.org/fhir/ValueSet/allergyintolerance-code">AllergyIntoleranceCode</a> 
                     <a href="{{site.data.fhir.path}}terminologies.html#example">example</a>
                  </td>
                  <td>
                     <p>AllergyIntolerance.code.coding.where(system=%MHLLT).code</p>
                  </td>
               </tr>
               <tr>
                  <td>
                     <span title="Describes what was observed. Sometimes this is called the observation &#34;name&#34;.">
                        <a style="font-weight:bold"
                           href="{{site.data.fhir.path}}observation-definitions.html#Observation.code">Observation.code</a>
                     </span>
                     <br/>1..1 <a href="{{site.data.fhir.path}}datatypes.html#CodeableConcept">CodeableConcept</a>
                     <br/>Binding: <a href="http://hl7.org/fhir/ValueSet/observation-codes">ObservationCode</a> 
                     <a href="{{site.data.fhir.path}}terminologies.html#example">example</a>
                  </td>
                  <td>
                     <p>Observation.code.coding.where(system=%MHLLT).code</p>
                  </td>
               </tr>
               <tr>
                  <th rowspan="4">MH Event Preferred Term Code</th>
                  <td>
                     <span title="Identification of the condition, problem or diagnosis.">
                        <a style="font-weight:bold"
                           href="{{site.data.fhir.path}}condition-definitions.html#Condition.code">Condition.code</a>
                     </span>
                     <br/>0..1 <a href="{{site.data.fhir.path}}datatypes.html#CodeableConcept">CodeableConcept</a>
                     <br/>Binding: <a href="http://hl7.org/fhir/ValueSet/condition-code">ConditionKind</a> 
                     <a href="{{site.data.fhir.path}}terminologies.html#example">example</a>
                  </td>
                  <td>
                     <p>Condition.code.coding.where(system=%MHPT).code</p>
                  </td>
                  <td rowspan="4">
                     <span style="font-weight:bold" title="MedDRA code for the Preferred Term.">
                        <a href="https://library.cdisc.org/api/mdr/cdashig/2-1/domains/MH/fields/MHPTCD">MHPTCD</a>
                     </span>
                     <br/>Core: O<br/>Type: Num</td>
                  <td rowspan="4">
                     <span style="font-weight:bold">MHPTCD*</span>
                  </td>
                  <td rowspan="4">In most cases, no MedDRA codes will be present in source data and all coding levels and displays will be added by the sponsor.  However, FHIR allows multiple codings and therefore all of these codes *can* be conveyed in FHIR if the data source chooses to capture them.  Standard code system URLs should be defined for each of the MedDRA levels.  If MedDRA is considered a single code system, then the consumer will be responsible for distinguishing which codes represent which levels by looking up the received code.</td>
               </tr>
               <tr>
                  <td>
                     <span title="This element defines the specific type of event that occurred or that was prevented from occurring.">
                        <a style="font-weight:bold"
                           href="{{site.data.fhir.path}}adverseevent-definitions.html#AdverseEvent.event">AdverseEvent.event</a>
                     </span>
                     <br/>0..1 <a href="{{site.data.fhir.path}}datatypes.html#CodeableConcept">CodeableConcept</a>
                     <br/>Binding: <a href="http://hl7.org/fhir/ValueSet/adverse-event-type">AdverseEventType</a> 
                     <a href="{{site.data.fhir.path}}terminologies.html#example">example</a>
                  </td>
                  <td>
                     <p>AdverseEvent.event.coding.where(system=%MHPT).code</p>
                  </td>
               </tr>
               <tr>
                  <td>
                     <span title="Code for an allergy or intolerance statement (either a positive or a negated/excluded statement).  This may be a code for a substance or pharmaceutical product that is considered to be responsible for the adverse reaction risk (e.g., &#34;Latex&#34;), an allergy or intolerance condition (e.g., &#34;Latex allergy&#34;), or a negated/excluded code for a specific substance or class (e.g., &#34;No latex allergy&#34;) or a general or categorical negated statement (e.g.,  &#34;No known allergy&#34;, &#34;No known drug allergies&#34;).  Note: the substance for a specific reaction may be different from the substance identified as the cause of the risk, but it must be consistent with it. For instance, it may be a more specific substance (e.g. a brand medication) or a composite product that includes the identified substance. It must be clinically safe to only process the 'code' and ignore the 'reaction.substance'.  If a receiving system is unable to confirm that AllergyIntolerance.reaction.substance falls within the semantic scope of AllergyIntolerance.code, then the receiving system should ignore AllergyIntolerance.reaction.substance.">
                        <a style="font-weight:bold"
                           href="{{site.data.fhir.path}}allergyintolerance-definitions.html#AllergyIntolerance.code">AllergyIntolerance.code</a>
                     </span>
                     <br/>0..1 <a href="{{site.data.fhir.path}}datatypes.html#CodeableConcept">CodeableConcept</a>
                     <br/>Binding: <a href="http://hl7.org/fhir/ValueSet/allergyintolerance-code">AllergyIntoleranceCode</a> 
                     <a href="{{site.data.fhir.path}}terminologies.html#example">example</a>
                  </td>
                  <td>
                     <p>AllergyIntolerance.code.coding.where(system=%MHPT).code</p>
                  </td>
               </tr>
               <tr>
                  <td>
                     <span title="Describes what was observed. Sometimes this is called the observation &#34;name&#34;.">
                        <a style="font-weight:bold"
                           href="{{site.data.fhir.path}}observation-definitions.html#Observation.code">Observation.code</a>
                     </span>
                     <br/>1..1 <a href="{{site.data.fhir.path}}datatypes.html#CodeableConcept">CodeableConcept</a>
                     <br/>Binding: <a href="http://hl7.org/fhir/ValueSet/observation-codes">ObservationCode</a> 
                     <a href="{{site.data.fhir.path}}terminologies.html#example">example</a>
                  </td>
                  <td>
                     <p>Observation.code.coding.where(system=%MHPT).code</p>
                  </td>
               </tr>
               <tr>
                  <th rowspan="4">Medical History Event High Level Term</th>
                  <td>
                     <span title="Identification of the condition, problem or diagnosis.">
                        <a style="font-weight:bold"
                           href="{{site.data.fhir.path}}condition-definitions.html#Condition.code">Condition.code</a>
                     </span>
                     <br/>0..1 <a href="{{site.data.fhir.path}}datatypes.html#CodeableConcept">CodeableConcept</a>
                     <br/>Binding: <a href="http://hl7.org/fhir/ValueSet/condition-code">ConditionKind</a> 
                     <a href="{{site.data.fhir.path}}terminologies.html#example">example</a>
                  </td>
                  <td>
                     <p>Condition.code.where(system=%MHHLT).display</p>
                  </td>
                  <td rowspan="4">
                     <span style="font-weight:bold"
                           title="MedDRA text description of the High Level Term from the primary path.">
                        <a href="https://library.cdisc.org/api/mdr/cdashig/2-1/domains/MH/fields/MHHLT">MHHLT</a>
                     </span>
                     <br/>Core: O<br/>Type: Char</td>
                  <td rowspan="4">
                     <span style="font-weight:bold">MHHLT*</span>
                  </td>
                  <td rowspan="4">In most cases, no MedDRA codes will be present in source data and all coding levels and displays will be added by the sponsor.  However, FHIR allows multiple codings and therefore all of these codes *can* be conveyed in FHIR if the data source chooses to capture them.  Standard code system URLs should be defined for each of the MedDRA levels.  If MedDRA is considered a single code system, then the consumer will be responsible for distinguishing which codes represent which levels by looking up the received code.</td>
               </tr>
               <tr>
                  <td>
                     <span title="This element defines the specific type of event that occurred or that was prevented from occurring.">
                        <a style="font-weight:bold"
                           href="{{site.data.fhir.path}}adverseevent-definitions.html#AdverseEvent.event">AdverseEvent.event</a>
                     </span>
                     <br/>0..1 <a href="{{site.data.fhir.path}}datatypes.html#CodeableConcept">CodeableConcept</a>
                     <br/>Binding: <a href="http://hl7.org/fhir/ValueSet/adverse-event-type">AdverseEventType</a> 
                     <a href="{{site.data.fhir.path}}terminologies.html#example">example</a>
                  </td>
                  <td>
                     <p>AdverseEvent.event.coding.where(system=%MHHLT).display</p>
                  </td>
               </tr>
               <tr>
                  <td>
                     <span title="Code for an allergy or intolerance statement (either a positive or a negated/excluded statement).  This may be a code for a substance or pharmaceutical product that is considered to be responsible for the adverse reaction risk (e.g., &#34;Latex&#34;), an allergy or intolerance condition (e.g., &#34;Latex allergy&#34;), or a negated/excluded code for a specific substance or class (e.g., &#34;No latex allergy&#34;) or a general or categorical negated statement (e.g.,  &#34;No known allergy&#34;, &#34;No known drug allergies&#34;).  Note: the substance for a specific reaction may be different from the substance identified as the cause of the risk, but it must be consistent with it. For instance, it may be a more specific substance (e.g. a brand medication) or a composite product that includes the identified substance. It must be clinically safe to only process the 'code' and ignore the 'reaction.substance'.  If a receiving system is unable to confirm that AllergyIntolerance.reaction.substance falls within the semantic scope of AllergyIntolerance.code, then the receiving system should ignore AllergyIntolerance.reaction.substance.">
                        <a style="font-weight:bold"
                           href="{{site.data.fhir.path}}allergyintolerance-definitions.html#AllergyIntolerance.code">AllergyIntolerance.code</a>
                     </span>
                     <br/>0..1 <a href="{{site.data.fhir.path}}datatypes.html#CodeableConcept">CodeableConcept</a>
                     <br/>Binding: <a href="http://hl7.org/fhir/ValueSet/allergyintolerance-code">AllergyIntoleranceCode</a> 
                     <a href="{{site.data.fhir.path}}terminologies.html#example">example</a>
                  </td>
                  <td>
                     <p>AllergyIntolerance.code.where(system=%MHHLT).display</p>
                  </td>
               </tr>
               <tr>
                  <td>
                     <span title="Describes what was observed. Sometimes this is called the observation &#34;name&#34;.">
                        <a style="font-weight:bold"
                           href="{{site.data.fhir.path}}observation-definitions.html#Observation.code">Observation.code</a>
                     </span>
                     <br/>1..1 <a href="{{site.data.fhir.path}}datatypes.html#CodeableConcept">CodeableConcept</a>
                     <br/>Binding: <a href="http://hl7.org/fhir/ValueSet/observation-codes">ObservationCode</a> 
                     <a href="{{site.data.fhir.path}}terminologies.html#example">example</a>
                  </td>
                  <td>
                     <p>Observation.code.where(system=%MHHLT).display</p>
                  </td>
               </tr>
               <tr>
                  <th rowspan="4">MH Event High Level Term Code</th>
                  <td>
                     <span title="Identification of the condition, problem or diagnosis.">
                        <a style="font-weight:bold"
                           href="{{site.data.fhir.path}}condition-definitions.html#Condition.code">Condition.code</a>
                     </span>
                     <br/>0..1 <a href="{{site.data.fhir.path}}datatypes.html#CodeableConcept">CodeableConcept</a>
                     <br/>Binding: <a href="http://hl7.org/fhir/ValueSet/condition-code">ConditionKind</a> 
                     <a href="{{site.data.fhir.path}}terminologies.html#example">example</a>
                  </td>
                  <td>
                     <p>Condition.code.coding.where(system=%MHHLT).code</p>
                  </td>
                  <td rowspan="4">
                     <span style="font-weight:bold"
                           title="MedDRA High Level Term code from the primary path.">
                        <a href="https://library.cdisc.org/api/mdr/cdashig/2-1/domains/MH/fields/MHHLTCD">MHHLTCD</a>
                     </span>
                     <br/>Core: O<br/>Type: Num</td>
                  <td rowspan="4">
                     <span style="font-weight:bold">MHHLTCD*</span>
                  </td>
                  <td rowspan="4">In most cases, no MedDRA codes will be present in source data and all coding levels and displays will be added by the sponsor.  However, FHIR allows multiple codings and therefore all of these codes *can* be conveyed in FHIR if the data source chooses to capture them.  Standard code system URLs should be defined for each of the MedDRA levels.  If MedDRA is considered a single code system, then the consumer will be responsible for distinguishing which codes represent which levels by looking up the received code.</td>
               </tr>
               <tr>
                  <td>
                     <span title="This element defines the specific type of event that occurred or that was prevented from occurring.">
                        <a style="font-weight:bold"
                           href="{{site.data.fhir.path}}adverseevent-definitions.html#AdverseEvent.event">AdverseEvent.event</a>
                     </span>
                     <br/>0..1 <a href="{{site.data.fhir.path}}datatypes.html#CodeableConcept">CodeableConcept</a>
                     <br/>Binding: <a href="http://hl7.org/fhir/ValueSet/adverse-event-type">AdverseEventType</a> 
                     <a href="{{site.data.fhir.path}}terminologies.html#example">example</a>
                  </td>
                  <td>
                     <p>AdverseEvent.event.coding.where(system=%MHHLT).code</p>
                  </td>
               </tr>
               <tr>
                  <td>
                     <span title="Code for an allergy or intolerance statement (either a positive or a negated/excluded statement).  This may be a code for a substance or pharmaceutical product that is considered to be responsible for the adverse reaction risk (e.g., &#34;Latex&#34;), an allergy or intolerance condition (e.g., &#34;Latex allergy&#34;), or a negated/excluded code for a specific substance or class (e.g., &#34;No latex allergy&#34;) or a general or categorical negated statement (e.g.,  &#34;No known allergy&#34;, &#34;No known drug allergies&#34;).  Note: the substance for a specific reaction may be different from the substance identified as the cause of the risk, but it must be consistent with it. For instance, it may be a more specific substance (e.g. a brand medication) or a composite product that includes the identified substance. It must be clinically safe to only process the 'code' and ignore the 'reaction.substance'.  If a receiving system is unable to confirm that AllergyIntolerance.reaction.substance falls within the semantic scope of AllergyIntolerance.code, then the receiving system should ignore AllergyIntolerance.reaction.substance.">
                        <a style="font-weight:bold"
                           href="{{site.data.fhir.path}}allergyintolerance-definitions.html#AllergyIntolerance.code">AllergyIntolerance.code</a>
                     </span>
