<?xml version="1.0" encoding="utf-8"?>
<cdiscLibrary>
  <product>
    <_links>
      <self>
        <href>/mdr/cdashig/2-1</href>
        <title>Clinical Data Acquisition Standards Harmonization Implementation Guide for Human Clinical Trials Version 2.1</title>
        <type>Implementation Guide</type>
      </self>
    </_links>
    <class>
      <_links>
        <self>
          <href>/mdr/cdashig/2-1/classes/SpecialPurpose</href>
          <title>Special-Purpose</title>
          <type>Class</type>
        </self>
      </_links>
      <description>The Study Data Tabulation Model Implementation Guide (SDTMIG) includes 3 types of special-purpose datasets: Domain datasets-Demographics (DM), Comments (CO), Subject Elements (SE), and Subject Visits (SV)-which contain subject-level data Trial Design Model (TDM) datasets, which contain trial-level data Relationship datasets These datasets are described in SDTMIG Section 2.3. CDASH does not currently contain information on Trial Design Model or Relationship datasets. Because CDASH standards are for collection of subject-level data, the collection of Trial Design domains is out of the scope for CDASH. CDASHIG contains information on these Special-Purpose Domains: Comments (CO) and Demographics (DM). (Source: CDASHIG v2.1, Section 7)</description>
      <domain>
        <_links>
          <self>
            <href>/mdr/cdashig/2-1/domains/DM</href>
            <title>Demographics</title>
            <type>CDASH Domain</type>
          </self>
        </_links>
        <field>
          <_links>
            <self>
              <href>/mdr/cdashig/2-1/domains/DM/fields/STUDYID</href>
              <title>Study Identifier</title>
              <type>Data Collection Field</type>
            </self>
          </_links>
          <core>HR</core>
          <definition>A unique identifier for a study.</definition>
          <label>Study Identifier</label>
          <name>STUDYID</name>
          <ordinal>1</ordinal>
          <questionText>What is the study identifier?</questionText>
          <simpleDatatype>Char</simpleDatatype>
        </field>
        <field>
          <_links>
            <self>
              <href>/mdr/cdashig/2-1/domains/DM/fields/SITEID</href>
              <title>Study Site Identifier</title>
              <type>Data Collection Field</type>
            </self>
          </_links>
          <core>HR</core>
          <definition>A unique identifier for a site within a study.</definition>
          <label>Study Site Identifier</label>
          <name>SITEID</name>
          <ordinal>2</ordinal>
          <questionText>What is the site identifier?</questionText>
          <simpleDatatype>Char</simpleDatatype>
        </field>
        <field>
          <_links>
            <self>
              <href>/mdr/cdashig/2-1/domains/DM/fields/SUBJID</href>
              <title>Subject Identifier for the Study</title>
              <type>Data Collection Field</type>
            </self>
          </_links>
          <core>HR</core>
          <definition>A unique subject identifier within a site and a study.</definition>
          <label>Subject Identifier for the Study</label>
          <name>SUBJID</name>
          <ordinal>3</ordinal>
          <questionText>What [is/was] the (study) [subject/participant] identifier?</questionText>
          <simpleDatatype>Char</simpleDatatype>
        </field>
        <field>
          <_links>
            <self>
              <href>/mdr/cdashig/2-1/domains/DM/fields/BRTHDAT</href>
              <title>Birth Date</title>
              <type>Data Collection Field</type>
            </self>
          </_links>
          <core>R/C</core>
          <definition>A subject's date of birth (with or without the time of birth). The complete Date of Birth is made from the temporal components of Birth Year, Birth Month, Birth Day and Birth Time.</definition>
          <label>Birth Date</label>
          <name>BRTHDAT</name>
          <ordinal>4</ordinal>
          <questionText>What is the subject's date of birth?</questionText>
          <simpleDatatype>Char</simpleDatatype>
        </field>
        <field>
          <_links>
            <self>
              <href>/mdr/cdashig/2-1/domains/DM/fields/BRTHDD</href>
              <title>Birth Day</title>
              <type>Data Collection Field</type>
            </self>
          </_links>
          <core>R/C</core>
          <definition>Day of birth of the subject in an unambiguous date format (e.g., DD).</definition>
          <label>Birth Day</label>
          <name>BRTHDD</name>
          <ordinal>5</ordinal>
          <questionText>What is the subject's day of birth?</questionText>
          <simpleDatatype>Char</simpleDatatype>
        </field>
        <field>
          <_links>
            <self>
              <href>/mdr/cdashig/2-1/domains/DM/fields/BRTHMO</href>
              <title>Birth Month</title>
              <type>Data Collection Field</type>
            </self>
          </_links>
          <core>R/C</core>
          <definition>Month of birth of the subject in an unambiguous date format (e.g., MMM).</definition>
          <label>Birth Month</label>
          <name>BRTHMO</name>
          <ordinal>6</ordinal>
          <questionText>What is the subject's month of birth?</questionText>
          <simpleDatatype>Char</simpleDatatype>
        </field>
        <field>
          <_links>
            <self>
              <href>/mdr/cdashig/2-1/domains/DM/fields/BRTHYY</href>
              <title>Birth Year</title>
              <type>Data Collection Field</type>
            </self>
          </_links>
          <core>R/C</core>
          <definition>The year of birth of the subject in an unambiguous date format (e.g., YYYY).</definition>
          <label>Birth Year</label>
          <name>BRTHYY</name>
          <ordinal>7</ordinal>
          <questionText>What is the subject's year of birth?</questionText>
          <simpleDatatype>Char</simpleDatatype>
        </field>
        <field>
          <_links>
            <self>
              <href>/mdr/cdashig/2-1/domains/DM/fields/BRTHTIM</href>
              <title>Birth Time</title>
              <type>Data Collection Field</type>
            </self>
          </_links>
          <core>O</core>
          <definition>The time of birth of the subject in an unambiguous time format (e.g., hh:mm)</definition>
          <label>Birth Time</label>
          <name>BRTHTIM</name>
          <ordinal>8</ordinal>
          <questionText>What is the subject's time of birth?</questionText>
          <simpleDatatype>Char</simpleDatatype>
        </field>
        <field>
          <_links>
            <self>
              <href>/mdr/cdashig/2-1/domains/DM/fields/AGE</href>
              <title>Age</title>
              <type>Data Collection Field</type>
            </self>
          </_links>
          <core>O</core>
          <definition>The age of the subject expressed in AGEU.</definition>
          <label>Age</label>
          <name>AGE</name>
          <ordinal>9</ordinal>
          <questionText>What is the subject's age?</questionText>
          <simpleDatatype>Num</simpleDatatype>
        </field>
        <field>
          <_links>
            <self>
              <href>/mdr/cdashig/2-1/domains/DM/fields/AGEU</href>
              <title>Age Units</title>
              <type>Data Collection Field</type>
            </self>
          </_links>
          <core>O</core>
          <definition>Those units of time that are routinely used to express the age of a person.</definition>
          <label>Age Units</label>
          <name>AGEU</name>
          <ordinal>10</ordinal>
          <questionText>What is the age unit used?</questionText>
          <simpleDatatype>Char</simpleDatatype>
        </field>
        <field>
          <_links>
            <self>
              <href>/mdr/cdashig/2-1/domains/DM/fields/DMDAT</href>
              <title>Demographics Collection Date</title>
              <type>Data Collection Field</type>
            </self>
          </_links>
          <core>R/C</core>
          <definition>The date of collection represented in an unambiguous date format (e.g., DD-MON-YYYY)</definition>
          <label>Demographics Collection Date</label>
          <name>DMDAT</name>
          <ordinal>11</ordinal>
          <questionText>What is the date of collection?</questionText>
          <simpleDatatype>Char</simpleDatatype>
        </field>
        <field>
          <_links>
            <self>
              <href>/mdr/cdashig/2-1/domains/DM/fields/SEX</href>
              <title>Sex</title>
              <type>Data Collection Field</type>
            </self>
          </_links>
          <core>R/C</core>
          <definition>Sex of the subject as determined by the investigator.</definition>
          <label>Sex</label>
          <name>SEX</name>
          <ordinal>12</ordinal>
          <questionText>What is the sex of the subject?</questionText>
          <simpleDatatype>Char</simpleDatatype>
        </field>
        <field>
          <_links>
            <self>
              <href>/mdr/cdashig/2-1/domains/DM/fields/ETHNIC</href>
              <title>Ethnicity</title>
              <type>Data Collection Field</type>
            </self>
          </_links>
          <core>O</core>
          <definition>A social group characterized by a distinctive social and cultural tradition maintained from generation to generation, a common history and origin and a sense of identification with the group; members of the group have distinctive features in their way of life, shared experiences and often a common genetic heritage; these features may be reflected in their experience of health and disease.</definition>
          <label>Ethnicity</label>
          <name>ETHNIC</name>
          <ordinal>13</ordinal>
          <questionText>Do you consider yourself Hispanic/Latino or not Hispanic/Latino?</questionText>
          <simpleDatatype>Char</simpleDatatype>
        </field>
        <field>
          <_links>
            <self>
              <href>/mdr/cdashig/2-1/domains/DM/fields/CETHNIC</href>
              <title>Collected Ethnicity</title>
              <type>Data Collection Field</type>
            </self>
          </_links>
          <core>O</core>
          <definition>A social group characterized by a distinctive social and cultural tradition maintained from generation to generation, a common history and origin and a sense of identification with the group; members of the group have distinctive features in their way of life, shared experiences and often a common genetic heritage; these features may be reflected in their experience of health and disease.</definition>
          <label>Collected Ethnicity</label>
          <name>CETHNIC</name>
          <ordinal>14</ordinal>
          <questionText>What is the ethnicity of the subject?</questionText>
          <simpleDatatype>Char</simpleDatatype>
        </field>
        <field>
          <_links>
            <self>
              <href>/mdr/cdashig/2-1/domains/DM/fields/RACE</href>
              <title>Race</title>
              <type>Data Collection Field</type>
            </self>
          </_links>
          <core>R/C</core>
          <definition>An arbitrary classification based on physical characteristics; a group of persons related by common descent or heredity (U.S. Center for Disease Control).</definition>
          <label>Race</label>
          <name>RACE</name>
          <ordinal>15</ordinal>
          <questionText>Which of the following five racial designations best describes you? (More than one choice is acceptable.)</questionText>
          <simpleDatatype>Char</simpleDatatype>
        </field>
        <field>
          <_links>
            <self>
              <href>/mdr/cdashig/2-1/domains/DM/fields/CRACE</href>
              <title>Collected Race</title>
              <type>Data Collection Field</type>
            </self>
          </_links>
          <core>R/C</core>
          <definition>An arbitrary classification based on physical characteristics; a group of persons related by common descent or heredity (US Centers for Disease Control).</definition>
          <label>Collected Race</label>
          <name>CRACE</name>
          <ordinal>16</ordinal>
          <questionText>Which of the following racial designations best describes you? (More than one choice is acceptable.)</questionText>
          <simpleDatatype>Char</simpleDatatype>
        </field>
        <field>
          <_links>
            <self>
              <href>/mdr/cdashig/2-1/domains/DM/fields/RACEOTH</href>
              <title>Race Other</title>
              <type>Data Collection Field</type>
            </self>
          </_links>
          <core>O</core>
          <definition>A free-text field to be used when none of the preprinted values for RACE are applicable or if another, unprinted selection should be added to those preprinted values.</definition>
          <label>Race Other</label>
          <name>RACEOTH</name>
          <ordinal>17</ordinal>
          <questionText>What was the other race?</questionText>
          <simpleDatatype>Char</simpleDatatype>
        </field>
        <label>Demographics</label>
        <name>DM</name>
        <ordinal>7</ordinal>
      </domain>
      <label>Special-Purpose</label>
      <name>Special-Purpose</name>
      <ordinal>1</ordinal>
    </class>
    <class>
      <_links>
        <self>
          <href>/mdr/cdashig/2-1/classes/Interventions</href>
          <title>Interventions</title>
          <type>Class</type>
        </self>
      </_links>
      <description>The Interventions class includes CDASH domains that define collection standards for investigational treatments, therapeutic treatments, and procedures that are intentionally administered to the subject either as specified by the study protocol (e.g., exposure), coincident with the study assessment period (e.g., concomitant medications), or self-administered by the subject (e.g., alcohol, tobacco, caffeine). (Source: CDASHIG v2.1, Section 8.1)</description>
      <domain>
        <_links>
          <self>
            <href>/mdr/cdashig/2-1/domains/CM</href>
            <title>Concomitant Medications</title>
            <type>CDASH Domain</type>
          </self>
        </_links>
        <field>
          <_links>
            <self>
              <href>/mdr/cdashig/2-1/domains/CM/fields/STUDYID</href>
              <title>Study Identifier</title>
              <type>Data Collection Field</type>
            </self>
          </_links>
          <core>HR</core>
          <definition>A unique identifier for a study.</definition>
          <label>Study Identifier</label>
          <name>STUDYID</name>
          <ordinal>1</ordinal>
          <questionText>What is the study identifier?</questionText>
          <simpleDatatype>Char</simpleDatatype>
        </field>
        <field>
          <_links>
            <self>
              <href>/mdr/cdashig/2-1/domains/CM/fields/SITEID</href>
              <title>Study Site Identifier</title>
              <type>Data Collection Field</type>
            </self>
          </_links>
          <core>HR</core>
          <definition>A unique identifier for a site within a study.</definition>
          <label>Study Site Identifier</label>
          <name>SITEID</name>
          <ordinal>2</ordinal>
          <questionText>What is the site identifier?</questionText>
          <simpleDatatype>Char</simpleDatatype>
        </field>
        <field>
          <_links>
            <self>
              <href>/mdr/cdashig/2-1/domains/CM/fields/SUBJID</href>
              <title>Subject Identifier for the Study</title>
              <type>Data Collection Field</type>
            </self>
          </_links>
          <core>HR</core>
          <definition>A unique subject identifier within a site and a study.</definition>
          <label>Subject Identifier for the Study</label>
          <name>SUBJID</name>
          <ordinal>3</ordinal>
          <questionText>What [is/was] the (study) [subject/participant] identifier?</questionText>
          <simpleDatatype>Char</simpleDatatype>
        </field>
        <field>
          <_links>
            <self>
              <href>/mdr/cdashig/2-1/domains/CM/fields/CMCAT</href>
              <title>Category for Medication</title>
              <type>Data Collection Field</type>
            </self>
          </_links>
          <core>O</core>
          <definition>A grouping of topic-variable values based on user-defined characteristics.</definition>
          <label>Category for Medication</label>
          <name>CMCAT</name>
          <ordinal>4</ordinal>
          <questionText>What is the category for the (concomitant) [medication/treatment/therapy]?</questionText>
          <simpleDatatype>Char</simpleDatatype>
        </field>
        <field>
          <_links>
            <self>
              <href>/mdr/cdashig/2-1/domains/CM/fields/CMSCAT</href>
              <title>Subcategory for Medication</title>
              <type>Data Collection Field</type>
            </self>
          </_links>
          <core>O</core>
          <definition>A sub-division of the CMCAT values based on user-defined characteristics.</definition>
          <label>Subcategory for Medication</label>
          <name>CMSCAT</name>
          <ordinal>5</ordinal>
          <questionText>What is the subcategory for the (concomitant) [medication/treatment/therapy]?</questionText>
          <simpleDatatype>Char</simpleDatatype>
        </field>
        <field>
          <_links>
            <self>
              <href>/mdr/cdashig/2-1/domains/CM/fields/CMYN</href>
              <title>Any Concomitant Medications Taken</title>
              <type>Data Collection Field</type>
            </self>
          </_links>
          <core>O</core>
          <definition>An indication whether or not any (concomitant) medications/treatments/therapies were taken/given.</definition>
          <label>Any Concomitant Medications Taken</label>
          <name>CMYN</name>
          <ordinal>6</ordinal>
          <questionText>Were/Was any (concomitant) [medication(s)/treatment(s)/therapy(ies)] taken?</questionText>
          <simpleDatatype>Char</simpleDatatype>
        </field>
        <field>
          <_links>
            <self>
              <href>/mdr/cdashig/2-1/domains/CM/fields/CMSPID</href>
              <title>CM Sponsor-Defined Identifier</title>
              <type>Data Collection Field</type>
            </self>
          </_links>
          <core>O</core>
          <definition>A sponsor-defined identifier. In CDASH, This is typically used for preprinted or auto-generated numbers on the CRF, or any other type of identifier that does not already have a defined CDASH identifier field.</definition>
          <label>CM Sponsor-Defined Identifier</label>
          <name>CMSPID</name>
          <ordinal>7</ordinal>
          <questionText>[Sponsor-defined question]</questionText>
          <simpleDatatype>Char</simpleDatatype>
        </field>
        <field>
          <_links>
            <self>
              <href>/mdr/cdashig/2-1/domains/CM/fields/CMTRT</href>
              <title>Reported Name of Drug, Med, or Therapy</title>
              <type>Data Collection Field</type>
            </self>
          </_links>
          <core>HR</core>
          <definition>Verbatim medication name or treatments (include only treatments with data collection characteristics similar to medications).</definition>
          <label>Reported Name of Drug, Med, or Therapy</label>
          <name>CMTRT</name>
          <ordinal>8</ordinal>
          <questionText>What was the (concomitant) [medication/treatment/therapy] (name/term)?</questionText>
          <simpleDatatype>Char</simpleDatatype>
        </field>
        <field>
          <_links>
            <self>
              <href>/mdr/cdashig/2-1/domains/CM/fields/CMPRESP</href>
              <title>CM Pre-Specified</title>
              <type>Data Collection Field</type>
            </self>
          </_links>
          <core>O</core>
          <definition>An indication that a specific intervention or a group of interventions is prespecified on a CRF.</definition>
          <label>CM Pre-Specified</label>
          <name>CMPRESP</name>
          <ordinal>9</ordinal>
          <simpleDatatype>Char</simpleDatatype>
        </field>
        <field>
          <_links>
            <self>
              <href>/mdr/cdashig/2-1/domains/CM/fields/CMOCCUR</href>
              <title>CM Occurrence</title>
              <type>Data Collection Field</type>
            </self>
          </_links>
          <core>O</core>
          <definition>An indication whether the prespecified medication/treatment/therapy (CMTRT) or the group of medications/treatments/therapies was administered when information about the occurrence of a specific intervention is solicited.</definition>
          <label>CM Occurrence</label>
          <name>CMOCCUR</name>
          <ordinal>10</ordinal>
          <questionText>Did the subject take [prespecified (concomitant) medication/treatment/therapy/dose]?; Has the subject taken [prespecified (concomitant) medication/treatment/therapy/dose]?</questionText>
          <simpleDatatype>Char</simpleDatatype>
        </field>
        <field>
          <_links>
            <self>
              <href>/mdr/cdashig/2-1/domains/CM/fields/CMINGRD</href>
              <title>Concomitant Meds Active Ingredients</title>
              <type>Data Collection Field</type>
            </self>
          </_links>
          <core>O</core>
          <definition>Medication Ingredients.</definition>
          <label>Concomitant Meds Active Ingredients</label>
          <name>CMINGRD</name>
          <ordinal>11</ordinal>
          <questionText>What were the active ingredients?</questionText>
          <simpleDatatype>Char</simpleDatatype>
        </field>
        <field>
          <_links>
            <self>
              <href>/mdr/cdashig/2-1/domains/CM/fields/CMINDC</href>
              <title>CM Indication</title>
              <type>Data Collection Field</type>
            </self>
          </_links>
          <core>R/C</core>
          <definition>The condition, disease, symptom, or disorder that the concomitant (non-study) medication/treatment/therapy was used to address or investigate (e.g., why the medication/treatment/therapy was taken or administered).</definition>
          <label>CM Indication</label>
          <name>CMINDC</name>
          <ordinal>12</ordinal>
          <questionText>For what indication was the (concomitant) [medication/treatment/therapy] taken?</questionText>
          <simpleDatatype>Char</simpleDatatype>
        </field>
        <field>
          <_links>
            <self>
              <href>/mdr/cdashig/2-1/domains/CM/fields/CMAENO</href>
              <title>Related Adverse Event ID</title>
              <type>Data Collection Field</type>
            </self>
          </_links>
          <core>O</core>
          <definition>Identifier for the adverse event that is the indication for this medication/treatment/therapy.</definition>
          <label>Related Adverse Event ID</label>
          <name>CMAENO</name>
          <ordinal>13</ordinal>
          <questionText>What was the identifier for the adverse event(s) for which the (concomitant) [medication/treatment/therapy] was taken?</questionText>
          <simpleDatatype>Char</simpleDatatype>
        </field>
        <field>
          <_links>
            <self>
              <href>/mdr/cdashig/2-1/domains/CM/fields/CMMHNO</href>
              <title>Related Medical History Event ID</title>
              <type>Data Collection Field</type>
            </self>
          </_links>
          <core>O</core>
          <definition>Identifier for the medical history condition that is the indication for this medication/treatment/therapy.</definition>
          <label>Related Medical History Event ID</label>
          <name>CMMHNO</name>
          <ordinal>14</ordinal>
          <questionText>What was the identifier for the medical history event(s) for which the (concomitant) [medication/treatment/therapy] was taken?</questionText>
          <simpleDatatype>Char</simpleDatatype>
        </field>
        <field>
          <_links>
            <self>
              <href>/mdr/cdashig/2-1/domains/CM/fields/CMDOSE</href>
              <title>CM Dose per Administration</title>
              <type>Data Collection Field</type>
            </self>
          </_links>
          <core>O</core>
          <definition>The dose of medication/treatment (e.g., --TRT ) given at one time represented as a numeric value.</definition>
          <label>CM Dose per Administration</label>
          <name>CMDOSE</name>
          <ordinal>15</ordinal>
          <questionText>What was the individual dose (of the concomitant [medication/treatment/therapy] per administration)?</questionText>
          <simpleDatatype>Num</simpleDatatype>
        </field>
        <field>
          <_links>
            <self>
              <href>/mdr/cdashig/2-1/domains/CM/fields/CMDSTXT</href>
              <title>Concomitant Meds Dose Description</title>
              <type>Data Collection Field</type>
            </self>
          </_links>
          <core>O</core>
          <definition>The dose of medication/treatment taken per administration.</definition>
          <label>Concomitant Meds Dose Description</label>
          <name>CMDSTXT</name>
          <ordinal>16</ordinal>
          <questionText>What was the individual dose of the (concomitant) [medication/treatment/therapy]?</questionText>
          <simpleDatatype>Char</simpleDatatype>
        </field>
        <field>
          <_links>
            <self>
              <href>/mdr/cdashig/2-1/domains/CM/fields/CMDOSTOT</href>
              <title>CM Total Daily Dose</title>
              <type>Data Collection Field</type>
            </self>
          </_links>
          <core>O</core>
          <definition>The total amount of CMTRT taken over a day using the units in CMDOSU.</definition>
          <label>CM Total Daily Dose</label>
          <name>CMDOSTOT</name>
          <ordinal>17</ordinal>
          <questionText>What was the total daily dose of the (concomitant) [medication/treatment/therapy]?</questionText>
          <simpleDatatype>Num</simpleDatatype>
        </field>
        <field>
          <_links>
            <self>
              <href>/mdr/cdashig/2-1/domains/CM/fields/CMDOSU</href>
              <title>CM Dose Units</title>
              <type>Data Collection Field</type>
            </self>
          </_links>
          <core>R/C</core>
          <definition>The unit associated with the concomitant medication/treatment/therapy taken (e.g., mg in "2 mg 3 times per day").</definition>
          <label>CM Dose Units</label>
          <name>CMDOSU</name>
          <ordinal>18</ordinal>
          <questionText>What is the unit (for the dose of concomitant [medication/treatment/therapy])?</questionText>
          <simpleDatatype>Char</simpleDatatype>
        </field>
        <field>
          <_links>
            <self>
              <href>/mdr/cdashig/2-1/domains/CM/fields/CMDOSFRM</href>
              <title>CM Dose Form</title>
              <type>Data Collection Field</type>
            </self>
          </_links>
          <core>O</core>
          <definition>The pharmaceutical dosage form in which the CMTRT is physically presented.</definition>
          <label>CM Dose Form</label>
          <name>CMDOSFRM</name>
          <ordinal>19</ordinal>
          <questionText>What was the dose form of the (concomitant) [medication/treatment/therapy]?</questionText>
          <simpleDatatype>Char</simpleDatatype>
        </field>
        <field>
          <_links>
            <self>
              <href>/mdr/cdashig/2-1/domains/CM/fields/CMDOSFRQ</href>
              <title>CM Dosing Frequency per Interval</title>
              <type>Data Collection Field</type>
            </self>
          </_links>
          <core>O</core>
          <definition>The number of doses given/administered/taken during a specific interval.</definition>
          <label>CM Dosing Frequency per Interval</label>
          <name>CMDOSFRQ</name>
          <ordinal>20</ordinal>
          <questionText>What was the frequency of the (concomitant) [medication/treatment/therapy]?</questionText>
          <simpleDatatype>Char</simpleDatatype>
        </field>
        <field>
          <_links>
            <self>
              <href>/mdr/cdashig/2-1/domains/CM/fields/CMROUTE</href>
              <title>CM Route of Administration</title>
              <type>Data Collection Field</type>
            </self>
          </_links>
          <core>R/C</core>
          <definition>The route of administration of the (concomitant) [medication/treatment/therapy].</definition>
          <label>CM Route of Administration</label>
          <name>CMROUTE</name>
          <ordinal>21</ordinal>
          <questionText>What was the route of administration of the (concomitant) [medication/treatment/therapy]?</questionText>
          <simpleDatatype>Char</simpleDatatype>
        </field>
        <field>
          <_links>
            <self>
              <href>/mdr/cdashig/2-1/domains/CM/fields/CMSTDAT</href>
              <title>Concomitant Meds Start Date</title>
              <type>Data Collection Field</type>
            </self>
          </_links>
          <core>R/C</core>
          <definition>The start date when the concomitant medication/treatment/therapy was first taken, represented in an unambiguous date format (e.g., DD-MON-YYYY).</definition>
          <label>Concomitant Meds Start Date</label>
          <name>CMSTDAT</name>
          <ordinal>22</ordinal>
          <questionText>What was the (concomitant) [medication/treatment/therapy/dose] start date?</questionText>
          <simpleDatatype>Char</simpleDatatype>
        </field>
        <field>
          <_links>
            <self>
              <href>/mdr/cdashig/2-1/domains/CM/fields/CMSTTIM</href>
              <title>Concomitant Meds Start Time</title>
              <type>Data Collection Field</type>
            </self>
          </_links>
          <core>R/C</core>
          <definition>The time the concomitant medication/treatment/therapy was started, represented in an unambiguous time format (e.g., hh:mm:ss).</definition>
          <label>Concomitant Meds Start Time</label>
          <name>CMSTTIM</name>
          <ordinal>23</ordinal>
          <questionText>What was the (concomitant) [medication/treatment/therapy/dose] start time?</questionText>
          <simpleDatatype>Char</simpleDatatype>
        </field>
        <field>
          <_links>
            <self>
              <href>/mdr/cdashig/2-1/domains/CM/fields/CMPRIOR</href>
              <title>Prior Concomitant Meds</title>
              <type>Data Collection Field</type>
            </self>
          </_links>
          <core>O</core>
          <definition>Indication the concomitant medication/treatment/therapy was given or taken prior to [CMSTTPT] or prior to the date in DM.RFSTDTC.</definition>
          <label>Prior Concomitant Meds</label>
          <name>CMPRIOR</name>
          <ordinal>24</ordinal>
          <questionText>Was the (concomitant) [medication/treatment/therapy] given/taken prior to [CMSTTPT]?; Was the (concomitant) [medication/treatment/therapy] given/taken prior to study start?</questionText>
          <simpleDatatype>Char</simpleDatatype>
        </field>
        <field>
          <_links>
            <self>
              <href>/mdr/cdashig/2-1/domains/CM/fields/CMONGO</href>
              <title>Ongoing Concomitant Meds</title>
              <type>Data Collection Field</type>
            </self>
          </_links>
          <core>R/C</core>
          <definition>Indication the concomitant medication/treatment/therapy is ongoing when no end date is provided.</definition>
          <label>Ongoing Concomitant Meds</label>
          <name>CMONGO</name>
          <ordinal>25</ordinal>
          <questionText>Was the (concomitant) [medication/treatment/therapy] ongoing (as of [the study-specific time point or period])?</questionText>
          <simpleDatatype>Char</simpleDatatype>
        </field>
        <field>
          <_links>
            <self>
              <href>/mdr/cdashig/2-1/domains/CM/fields/CMENDAT</href>
              <title>Concomitant Meds End Date</title>
              <type>Data Collection Field</type>
            </self>
          </_links>
          <core>R/C</core>
          <definition>The date that the subject ended/stopped taking the concomitant medication/treatment/therapy represented in an unambiguous date format (e.g., DD-MON-YYYY).</definition>
          <label>Concomitant Meds End Date</label>
          <name>CMENDAT</name>
          <ordinal>26</ordinal>
          <questionText>What was the (concomitant) [medication/treatment/therapy/dose] end date?</questionText>
          <simpleDatatype>Char</simpleDatatype>
        </field>
        <field>
          <_links>
            <self>
              <href>/mdr/cdashig/2-1/domains/CM/fields/CMENTIM</href>
              <title>Concomitant Meds End Time</title>
              <type>Data Collection Field</type>
            </self>
          </_links>
          <core>R/C</core>
          <definition>The time when the subject ended/stopped taking the concomitant medication/treatment/therapy represented in an unambiguous time format (e.g., hh:mm:ss).</definition>
          <label>Concomitant Meds End Time</label>
          <name>CMENTIM</name>
          <ordinal>27</ordinal>
          <questionText>What was the [medication/treatment/therapy/dose] end time?</questionText>
          <simpleDatatype>Char</simpleDatatype>
        </field>
        <field>
          <_links>
            <self>
              <href>/mdr/cdashig/2-1/domains/CM/fields/CMDECOD</href>
              <title>Standardized Medication Name</title>
              <type>Data Collection Field</type>
            </self>
          </_links>
          <core>O</core>
          <definition>The dictionary- or sponsor-defined standardized text description of the topic variable, CMTRT, or the modified topic variable (CMMODIFY), if applicable.</definition>
          <label>Standardized Medication Name</label>
          <name>CMDECOD</name>
          <ordinal>28</ordinal>
          <simpleDatatype>Char</simpleDatatype>
        </field>
        <field>
          <_links>
            <self>
              <href>/mdr/cdashig/2-1/domains/CM/fields/CMCLAS</href>
              <title>CM Medication Class</title>
              <type>Data Collection Field</type>
            </self>
          </_links>
          <core>O</core>
          <definition>The class for the intervention, often obtained from a coding dictionary.</definition>
          <label>CM Medication Class</label>
          <name>CMCLAS</name>
          <ordinal>29</ordinal>
          <simpleDatatype>Char</simpleDatatype>
        </field>
        <field>
          <_links>
            <self>
              <href>/mdr/cdashig/2-1/domains/CM/fields/CMCLASCD</href>
              <title>CM Medication Class Code</title>
              <type>Data Collection Field</type>
            </self>
          </_links>
          <core>O</core>
          <definition>The assigned dictionary code for the class for the intervention.</definition>
          <label>CM Medication Class Code</label>
          <name>CMCLASCD</name>
          <ordinal>30</ordinal>
          <simpleDatatype>Num</simpleDatatype>
        </field>
        <field>
          <_links>
            <self>
              <href>/mdr/cdashig/2-1/domains/CM/fields/CMATC1</href>
              <title>ATC Level 1 Description</title>
              <type>Data Collection Field</type>
            </self>
          </_links>
          <core>O</core>
          <definition>Dictionary text description of the first level of hierarchy within the Anatomical Therapeutic Chemical Classification System. Indicates the anatomical main group.</definition>
          <label>ATC Level 1 Description</label>
          <name>CMATC1</name>
          <ordinal>31</ordinal>
          <simpleDatatype>Char</simpleDatatype>
        </field>
        <field>
          <_links>
            <self>
              <href>/mdr/cdashig/2-1/domains/CM/fields/CMATC1CD</href>
              <title>ATC Level 1 Code</title>
              <type>Data Collection Field</type>
            </self>
          </_links>
          <core>O</core>
          <definition>Dictionary code denoting the first level of hierarchy within the Anatomical Therapeutic Chemical Classification System. Indicates the anatomical main group.</definition>
          <label>ATC Level 1 Code</label>
          <name>CMATC1CD</name>
          <ordinal>32</ordinal>
          <simpleDatatype>Num</simpleDatatype>
        </field>
        <field>
          <_links>
            <self>
              <href>/mdr/cdashig/2-1/domains/CM/fields/CMATC2</href>
              <title>ATC Level 2 Description</title>
              <type>Data Collection Field</type>
            </self>
          </_links>
          <core>O</core>
          <definition>Dictionary text description for the second level of hierarchy within the Anatomical Therapeutic Chemical Classification System. Indicates the therapeutic main group.</definition>
          <label>ATC Level 2 Description</label>
          <name>CMATC2</name>
          <ordinal>33</ordinal>
          <simpleDatatype>Char</simpleDatatype>
        </field>
        <field>
          <_links>
            <self>
              <href>/mdr/cdashig/2-1/domains/CM/fields/CMATC2CD</href>
              <title>ATC Level 2 Code</title>
              <type>Data Collection Field</type>
            </self>
          </_links>
          <core>O</core>
          <definition>Dictionary code denoting the second level of hierarchy within the Anatomical Therapeutic Chemical Classification System. Indicates the therapeutic main group.</definition>
          <label>ATC Level 2 Code</label>
          <name>CMATC2CD</name>
          <ordinal>34</ordinal>
          <simpleDatatype>Num</simpleDatatype>
        </field>
        <field>
          <_links>
            <self>
              <href>/mdr/cdashig/2-1/domains/CM/fields/CMATC3</href>
              <title>ATC Level 3 Description</title>
              <type>Data Collection Field</type>
            </self>
          </_links>
          <core>O</core>
          <definition>Dictionary text description of the third level of hierarchy within the Anatomical Therapeutic Chemical Classification System. Indicates the therapeutic/pharmacological subgroup.</definition>
          <label>ATC Level 3 Description</label>
          <name>CMATC3</name>
          <ordinal>35</ordinal>
          <simpleDatatype>Char</simpleDatatype>
        </field>
        <field>
          <_links>
            <self>
              <href>/mdr/cdashig/2-1/domains/CM/fields/CMATC3CD</href>
              <title>ATC Level 3 Code</title>
              <type>Data Collection Field</type>
            </self>
          </_links>
          <core>O</core>
          <definition>Dictionary code denoting the third level of hierarchy within the Anatomical Therapeutic Chemical Classification System. Indicates the therapeutic/pharmacological subgroup.</definition>
          <label>ATC Level 3 Code</label>
          <name>CMATC3CD</name>
          <ordinal>36</ordinal>
          <simpleDatatype>Num</simpleDatatype>
        </field>
        <field>
          <_links>
            <self>
              <href>/mdr/cdashig/2-1/domains/CM/fields/CMATC4</href>
              <title>ATC Level 4 Description</title>
              <type>Data Collection Field</type>
            </self>
          </_links>
          <core>O</core>
          <definition>Dictionary text description of the fourth level of hierarchy within the Anatomical Therapeutic Chemical Classification System. Indicates the chemical/therapeutic/pharmacological subgroup.</definition>
          <label>ATC Level 4 Description</label>
          <name>CMATC4</name>
          <ordinal>37</ordinal>
          <simpleDatatype>Char</simpleDatatype>
        </field>
        <field>
          <_links>
            <self>
              <href>/mdr/cdashig/2-1/domains/CM/fields/CMATC4CD</href>
              <title>ATC Level 4 Code</title>
              <type>Data Collection Field</type>
            </self>
          </_links>
          <core>O</core>
          <definition>Dictionary code denoting the fourth level of hierarchy within the Anatomical Therapeutic Chemical Classification System. Indicates the chemical/therapeutic/pharmacological subgroup.</definition>
          <label>ATC Level 4 Code</label>
          <name>CMATC4CD</name>
          <ordinal>38</ordinal>
          <simpleDatatype>Num</simpleDatatype>
        </field>
        <field>
          <_links>
            <self>
              <href>/mdr/cdashig/2-1/domains/CM/fields/CMATC5</href>
              <title>ATC Level 5 Description</title>
              <type>Data Collection Field</type>
            </self>
          </_links>
          <core>O</core>
          <definition>Dictionary text description of the fifth level of hierarchy within the Anatomical Therapeutic Chemical Classification system. Indicates the chemical substance.</definition>
          <label>ATC Level 5 Description</label>
          <name>CMATC5</name>
          <ordinal>39</ordinal>
          <simpleDatatype>Char</simpleDatatype>
        </field>
        <field>
          <_links>
            <self>
              <href>/mdr/cdashig/2-1/domains/CM/fields/CMATC5CD</href>
              <title>ATC Level 5 Code</title>
              <type>Data Collection Field</type>
            </self>
          </_links>
          <core>O</core>
          <definition>Dictionary code denoting the fifth level of hierarchy within the Anatomical Therapeutic Chemical Classification system. Indicates the chemical substance.</definition>
          <label>ATC Level 5 Code</label>
          <name>CMATC5CD</name>
          <ordinal>40</ordinal>
          <simpleDatatype>Num</simpleDatatype>
        </field>
        <label>Concomitant Medications</label>
        <name>CM</name>
        <ordinal>3</ordinal>
      </domain>
      <domain>
        <_links>
          <self>
            <href>/mdr/cdashig/2-1/domains/PR</href>
            <title>Procedures</title>
            <type>CDASH Domain</type>
          </self>
        </_links>
        <field>
          <_links>
            <self>
              <href>/mdr/cdashig/2-1/domains/PR/fields/STUDYID</href>
              <title>Study Identifier</title>
              <type>Data Collection Field</type>
            </self>
          </_links>
          <core>HR</core>
          <definition>A unique identifier for a study.</definition>
          <label>Study Identifier</label>
          <name>STUDYID</name>
          <ordinal>1</ordinal>
          <questionText>What is the study identifier?</questionText>
          <simpleDatatype>Char</simpleDatatype>
        </field>
        <field>
          <_links>
            <self>
              <href>/mdr/cdashig/2-1/domains/PR/fields/SITEID</href>
              <title>Study Site Identifier</title>
              <type>Data Collection Field</type>
            </self>
          </_links>
          <core>HR</core>
          <definition>A unique identifier for a site within a study.</definition>
          <label>Study Site Identifier</label>
          <name>SITEID</name>
          <ordinal>2</ordinal>
          <questionText>What is the site identifier?</questionText>
          <simpleDatatype>Char</simpleDatatype>
        </field>
        <field>
          <_links>
            <self>
              <href>/mdr/cdashig/2-1/domains/PR/fields/SUBJID</href>
              <title>Subject Identifier for the Study</title>
              <type>Data Collection Field</type>
            </self>
          </_links>
          <core>HR</core>
          <definition>A unique subject identifier within a site and a study.</definition>
          <label>Subject Identifier for the Study</label>
          <name>SUBJID</name>
          <ordinal>3</ordinal>
          <questionText>What [is/was] the (study) [subject/participant] identifier?</questionText>
          <simpleDatatype>Char</simpleDatatype>
        </field>
        <field>
          <_links>
            <self>
              <href>/mdr/cdashig/2-1/domains/PR/fields/PRYN</href>
              <title>Any Procedures Performed</title>
              <type>Data Collection Field</type>
            </self>
          </_links>
          <core>O</core>
          <definition>An indication whether or not the subject had any procedures performed.</definition>
          <label>Any Procedures Performed</label>
          <name>PRYN</name>
          <ordinal>4</ordinal>
          <questionText>Were any surgical, therapeutic, or diagnostic procedures performed?</questionText>
          <simpleDatatype>Char</simpleDatatype>
        </field>
        <field>
          <_links>
            <self>
              <href>/mdr/cdashig/2-1/domains/PR/fields/PRCAT</href>
              <title>Procedure Category</title>
              <type>Data Collection Field</type>
            </self>
          </_links>
          <core>O</core>
          <definition>A grouping of topic-variable values based on user-defined characteristics.</definition>
          <label>Procedure Category</label>
          <name>PRCAT</name>
          <ordinal>5</ordinal>
          <questionText>What was the category of the procedure?</questionText>
          <simpleDatatype>Char</simpleDatatype>
        </field>
        <field>
          <_links>
            <self>
              <href>/mdr/cdashig/2-1/domains/PR/fields/PRSCAT</href>
              <title>Procedure Subcategory</title>
              <type>Data Collection Field</type>
            </self>
          </_links>
          <core>O</core>
          <definition>A sub-division of the PRCAT values based on user-defined characteristics.</definition>
          <label>Procedure Subcategory</label>
          <name>PRSCAT</name>
          <ordinal>6</ordinal>
          <questionText>What was the subcategory of the procedure?</questionText>
          <simpleDatatype>Char</simpleDatatype>
        </field>
        <field>
          <_links>
            <self>
              <href>/mdr/cdashig/2-1/domains/PR/fields/PRSPID</href>
              <title>Procedure Sponsor-Defined Identifier</title>
              <type>Data Collection Field</type>
            </self>
          </_links>
          <core>O</core>
          <definition>A sponsor-defined identifier. In CDASH, This is typically used for preprinted or auto-generated numbers on the CRF, or any other type of identifier that does not already have a defined CDASH identifier field.</definition>
          <label>Procedure Sponsor-Defined Identifier</label>
          <name>PRSPID</name>
          <ordinal>7</ordinal>
          <questionText>[Sponsor defined question]</questionText>
          <simpleDatatype>Char</simpleDatatype>
        </field>
        <field>
          <_links>
            <self>
              <href>/mdr/cdashig/2-1/domains/PR/fields/PRTRT</href>
              <title>Reported Name of Procedure</title>
              <type>Data Collection Field</type>
            </self>
          </_links>
          <core>HR</core>
          <definition>The verbatim surgical, therapeutic, or diagnostic procedure's name.</definition>
          <label>Reported Name of Procedure</label>
          <name>PRTRT</name>
          <ordinal>8</ordinal>
          <questionText>What was the procedure name?</questionText>
          <simpleDatatype>Char</simpleDatatype>
        </field>
        <field>
          <_links>
            <self>
              <href>/mdr/cdashig/2-1/domains/PR/fields/PRDECOD</href>
              <title>Standardized Procedure Name</title>
              <type>Data Collection Field</type>
            </self>
          </_links>
          <core>O</core>
          <definition>The dictionary- or sponsor-defined standardized text description of PRTRT, or the modified topic variable (PRMODIFY), if applicable.</definition>
          <label>Standardized Procedure Name</label>
          <name>PRDECOD</name>
          <ordinal>9</ordinal>
          <simpleDatatype>Char</simpleDatatype>
        </field>
        <field>
          <_links>
            <self>
              <href>/mdr/cdashig/2-1/domains/PR/fields/PRMODIFY</href>
              <title>Modified Procedure Name</title>
              <type>Data Collection Field</type>
            </self>
          </_links>
          <core>O</core>
          <definition>If the value for PRTERM is modified for coding purposes, then the modified text is placed here.</definition>
          <label>Modified Procedure Name</label>
          <name>PRMODIFY</name>
          <ordinal>10</ordinal>
          <simpleDatatype>Char</simpleDatatype>
        </field>
        <field>
          <_links>
            <self>
              <href>/mdr/cdashig/2-1/domains/PR/fields/PRPRESP</href>
              <title>Procedure prespecified</title>
              <type>Data Collection Field</type>
            </self>
          </_links>
          <core>O</core>
          <definition>An indication that a specific intervention or a group of interventions is prespecified on a CRF.</definition>
          <label>Procedure prespecified</label>
          <name>PRPRESP</name>
          <ordinal>11</ordinal>
          <simpleDatatype>Char</simpleDatatype>
        </field>
        <field>
          <_links>
            <self>
              <href>/mdr/cdashig/2-1/domains/PR/fields/PROCCUR</href>
              <title>Procedure Occurrence</title>
              <type>Data Collection Field</type>
            </self>
          </_links>
          <core>O</core>
          <definition>An indication whether a prespecified procedure (PRTRT) happened when information about the occurrence of a specific intervention is solicited.</definition>
          <label>Procedure Occurrence</label>
          <name>PROCCUR</name>
          <ordinal>12</ordinal>
          <questionText>Was [PRDECOD/PRTRT] performed?; Has the subject had [PRDECOD/PRTRT]?</questionText>
          <simpleDatatype>Char</simpleDatatype>
        </field>
        <field>
          <_links>
            <self>
              <href>/mdr/cdashig/2-1/domains/PR/fields/PRREASOC</href>
              <title>Procedure Reason for Occur Value</title>
              <type>Data Collection Field</type>
            </self>
          </_links>
          <core>O</core>
          <definition>An explanation of why a scheduled procedure did or did not occur.</definition>
          <label>Procedure Reason for Occur Value</label>
          <name>PRREASOC</name>
          <ordinal>13</ordinal>
          <questionText>What was the reason that the procedure was (not) performed?</questionText>
          <simpleDatatype>Char</simpleDatatype>
        </field>
        <field>
          <_links>
            <self>
              <href>/mdr/cdashig/2-1/domains/PR/fields/PRREASND</href>
              <title>Procedure Reason Not Done</title>
              <type>Data Collection Field</type>
            </self>
          </_links>
          <core>O</core>
          <definition>An explanation of why the data are not available.</definition>
          <label>Procedure Reason Not Done</label>
          <name>PRREASND</name>
          <ordinal>14</ordinal>
          <questionText>What was the reason not done?</questionText>
          <simpleDatatype>Char</simpleDatatype>
        </field>
        <field>
          <_links>
            <self>
              <href>/mdr/cdashig/2-1/domains/PR/fields/PRPRIOR</href>
              <title>Prior Procedure</title>
              <type>Data Collection Field</type>
            </self>
          </_links>
          <core>O</core>
          <definition>Indication the procedure occurred prior to [PRSTTPT] or prior to the date in DM.RFSTDTC.</definition>
          <label>Prior Procedure</label>
          <name>PRPRIOR</name>
          <ordinal>15</ordinal>
          <questionText>Was the procedure performed prior to [PRSTTPT]?; Was the procedure performed prior to study start?</questionText>
          <simpleDatatype>Char</simpleDatatype>
        </field>
        <field>
          <_links>
            <self>
              <href>/mdr/cdashig/2-1/domains/PR/fields/PRSTDAT</href>
              <title>Procedure Start Date</title>
              <type>Data Collection Field</type>
            </self>
          </_links>
          <core>R/C</core>
          <definition>The date or start date of when the procedure started or was performed, represented in an unambiguous date format (e.g., DD-MON-YYYY).</definition>
          <label>Procedure Start Date</label>
          <name>PRSTDAT</name>
          <ordinal>16</ordinal>
          <questionText>What was the procedure (start) date ?</questionText>
          <simpleDatatype>Char</simpleDatatype>
        </field>
        <field>
          <_links>
            <self>
              <href>/mdr/cdashig/2-1/domains/PR/fields/PRONGO</href>
              <title>Ongoing Procedure</title>
              <type>Data Collection Field</type>
            </self>
          </_links>
          <core>O</core>
          <definition>Indication the procedure is ongoing when no end date is provided.</definition>
          <label>Ongoing Procedure</label>
          <name>PRONGO</name>
          <ordinal>17</ordinal>
          <questionText>Was the procedure ongoing (as of the [study-specific timepoint or period])?</questionText>
          <simpleDatatype>Char</simpleDatatype>
        </field>
        <field>
          <_links>
            <self>
              <href>/mdr/cdashig/2-1/domains/PR/fields/PRENDAT</href>
              <title>Procedure End Date</title>
              <type>Data Collection Field</type>
            </self>
          </_links>
          <core>R/C</core>
          <definition>The end date of the procedure, represented in an unambiguous date format (e.g., DD-MON-YYYY).</definition>
          <label>Procedure End Date</label>
          <name>PRENDAT</name>
          <ordinal>18</ordinal>
          <questionText>What was the procedure (end) date?</questionText>
          <simpleDatatype>Char</simpleDatatype>
        </field>
        <field>
          <_links>
            <self>
              <href>/mdr/cdashig/2-1/domains/PR/fields/PRINDC</href>
              <title>Procedure Indication</title>
              <type>Data Collection Field</type>
            </self>
          </_links>
          <core>O</core>
          <definition>The condition, disease, symptom, or disorder that the procedure was used to address or investigate (e.g., why the therapy was taken or administered, why the procedure was performed).</definition>
          <label>Procedure Indication</label>
          <name>PRINDC</name>
          <ordinal>19</ordinal>
          <questionText>For what indication was the [PRTRT] performed?</questionText>
          <simpleDatatype>Char</simpleDatatype>
        </field>
        <field>
          <_links>
            <self>
              <href>/mdr/cdashig/2-1/domains/PR/fields/PRAENO</href>
              <title>Related Adverse Event ID</title>
              <type>Data Collection Field</type>
            </self>
          </_links>
          <core>O</core>
          <definition>Identifier for the adverse event that is the indication for this procedure.</definition>
          <label>Related Adverse Event ID</label>
          <name>PRAENO</name>
          <ordinal>20</ordinal>
          <questionText>What was the identifier for the adverse event(s) for which the procedure was performed?</questionText>
          <simpleDatatype>Char</simpleDatatype>
        </field>
        <field>
          <_links>
            <self>
              <href>/mdr/cdashig/2-1/domains/PR/fields/PRMHNO</href>
              <title>Related Medical History Event ID</title>
              <type>Data Collection Field</type>
            </self>
          </_links>
          <core>O</core>
          <definition>Identifier for the medical history event that is the indication for this procedure.</definition>
          <label>Related Medical History Event ID</label>
          <name>PRMHNO</name>
          <ordinal>21</ordinal>
          <questionText>What was the identifier for the medical history event(s) for which the procedure was performed?</questionText>
          <simpleDatatype>Char</simpleDatatype>
        </field>
        <field>
          <_links>
            <self>
              <href>/mdr/cdashig/2-1/domains/PR/fields/PRDSTXT</href>
              <title>Procedure Dose Description</title>
              <type>Data Collection Field</type>
            </self>
          </_links>
          <core>O</core>
          <definition>The dose/amount administered during the procedure.</definition>
          <label>Procedure Dose Description</label>
          <name>PRDSTXT</name>
          <ordinal>22</ordinal>
          <questionText>What was the [dose/amount] of [PRTRT] (per administration/for the procedure)?</questionText>
          <simpleDatatype>Char</simpleDatatype>
        </field>
        <field>
          <_links>
            <self>
              <href>/mdr/cdashig/2-1/domains/PR/fields/PRDOSU</href>
              <title>Procedure Dose Unit</title>
              <type>Data Collection Field</type>
            </self>
          </_links>
          <core>O</core>
          <definition>The unit for intended dose/amount for PRDOSE, PRDOSTOT, or PRDOSTXT.</definition>
          <label>Procedure Dose Unit</label>
          <name>PRDOSU</name>
          <ordinal>23</ordinal>
          <questionText>What was the unit?</questionText>
          <simpleDatatype>Char</simpleDatatype>
        </field>
        <field>
          <_links>
            <self>
              <href>/mdr/cdashig/2-1/domains/PR/fields/PRDOSFRQ</href>
              <title>Procedure Frequency per Interval</title>
              <type>Data Collection Field</type>
            </self>
          </_links>
          <core>O</core>
          <definition>The number/amount of the procedure that was given/administered/taken during a specific interval.</definition>
          <label>Procedure Frequency per Interval</label>
          <name>PRDOSFRQ</name>
          <ordinal>24</ordinal>
          <questionText>What was the frequency of [PRTRT]?</questionText>
          <simpleDatatype>Char</simpleDatatype>
        </field>
        <field>
          <_links>
            <self>
              <href>/mdr/cdashig/2-1/domains/PR/fields/PRROUTE</href>
              <title>Procedure Route of Administration</title>
              <type>Data Collection Field</type>
            </self>
          </_links>
          <core>O</core>
          <definition>The route of administration of the procedure.</definition>
          <label>Procedure Route of Administration</label>
          <name>PRROUTE</name>
          <ordinal>25</ordinal>
          <questionText>What was the route of administration of the procedure?</questionText>
          <simpleDatatype>Char</simpleDatatype>
        </field>
        <field>
          <_links>
            <self>
              <href>/mdr/cdashig/2-1/domains/PR/fields/PRLOC</href>
              <title>Location of Procedure</title>
              <type>Data Collection Field</type>
            </self>
          </_links>
          <core>O</core>
          <definition>A description of the anatomical location of an procedure, such as location of a biopsy.</definition>
          <label>Location of Procedure</label>
          <name>PRLOC</name>
          <ordinal>26</ordinal>
          <questionText>What was the anatomical location where the procedure was performed?</questionText>
          <simpleDatatype>Char</simpleDatatype>
        </field>
        <field>
          <_links>
            <self>
              <href>/mdr/cdashig/2-1/domains/PR/fields/PRLAT</href>
              <title>Procedure Laterality</title>
              <type>Data Collection Field</type>
            </self>
          </_links>
          <core>O</core>
          <definition>Qualifier for anatomical location further detailing side of the body for the procedure administration.</definition>
          <label>Procedure Laterality</label>
          <name>PRLAT</name>
          <ordinal>27</ordinal>
          <questionText>What was the side of the anatomical location of the administration?</questionText>
          <simpleDatatype>Char</simpleDatatype>
        </field>
        <field>
          <_links>
            <self>
              <href>/mdr/cdashig/2-1/domains/PR/fields/PRDIR</href>
              <title>Procedure Directionality</title>
              <type>Data Collection Field</type>
            </self>
          </_links>
          <core>O</core>
          <definition>Qualifier further detailing the position of the anatomical location relative to the center of the body, organ, or specimen.</definition>
          <label>Procedure Directionality</label>
          <name>PRDIR</name>
          <ordinal>28</ordinal>
          <questionText>What was the directionality of the anatomical location of the procedure?</questionText>
          <simpleDatatype>Char</simpleDatatype>
        </field>
        <field>
          <_links>
            <self>
              <href>/mdr/cdashig/2-1/domains/PR/fields/PRPORTOT</href>
              <title>Procedure Portion or Totality</title>
              <type>Data Collection Field</type>
            </self>
          </_links>
          <core>O</core>
          <definition>Qualifier for anatomical location further detailing the distribution (i.e., arrangement of, apportioning of).</definition>
          <label>Procedure Portion or Totality</label>
          <name>PRPORTOT</name>
          <ordinal>29</ordinal>
          <questionText>What was the portion or totality of the anatomical location that was treated?</questionText>
          <simpleDatatype>Char</simpleDatatype>
        </field>
        <field>
          <_links>
            <self>
              <href>/mdr/cdashig/2-1/domains/PR/fields/PRFAST</href>
              <title>Procedure Fasting Status</title>
              <type>Data Collection Field</type>
            </self>
          </_links>
          <core>O</core>
          <definition>An indication that the subject has abstained from food/water for the specified amount of time.</definition>
          <label>Procedure Fasting Status</label>
          <name>PRFAST</name>
          <ordinal>30</ordinal>
          <questionText>Was the subject fasting?</questionText>
          <simpleDatatype>Char</simpleDatatype>
        </field>
        <field>
          <_links>
            <self>
              <href>/mdr/cdashig/2-1/domains/PR/fields/PRDOSRGM</href>
              <title>Procedure Intended Dose Regimen</title>
              <type>Data Collection Field</type>
            </self>
          </_links>
          <core>O</core>
          <definition>The text description of the (intended) schedule or regimen for the procedure.</definition>
          <label>Procedure Intended Dose Regimen</label>
          <name>PRDOSRGM</name>
          <ordinal>31</ordinal>
          <questionText>What was the intended procedure regimen?</questionText>
          <simpleDatatype>Char</simpleDatatype>
        </field>
        <field>
          <_links>
            <self>
              <href>/mdr/cdashig/2-1/domains/PR/fields/PRDOSADJ</href>
              <title>Procedure Adjusted</title>
              <type>Data Collection Field</type>
            </self>
          </_links>
          <core>O</core>
          <definition>An indication whether or not the procedure dose/amount was adjusted.</definition>
          <label>Procedure Adjusted</label>
          <name>PRDOSADJ</name>
          <ordinal>32</ordinal>
          <questionText>Was the procedure dose adjusted?</questionText>
          <simpleDatatype>Char</simpleDatatype>
        </field>
        <field>
          <_links>
            <self>
              <href>/mdr/cdashig/2-1/domains/PR/fields/PRADJ</href>
              <title>Reason for Procedure Adjustment</title>
              <type>Data Collection Field</type>
            </self>
          </_links>
          <core>O</core>
          <definition>Description or explanation of why a procedure dose/amount was adjusted.</definition>
          <label>Reason for Procedure Adjustment</label>
          <name>PRADJ</name>
          <ordinal>33</ordinal>
          <questionText>What was the reason the procedure dose was adjusted?</questionText>
          <simpleDatatype>Char</simpleDatatype>
        </field>
        <field>
          <_links>
            <self>
              <href>/mdr/cdashig/2-1/domains/PR/fields/PRTRTCMP</href>
              <title>Completed Procedure</title>
              <type>Data Collection Field</type>
            </self>
          </_links>
          <core>O</core>
          <definition>Indication whether the subject completed the intended regimen.</definition>
          <label>Completed Procedure</label>
          <name>PRTRTCMP</name>
          <ordinal>34</ordinal>
          <questionText>Did the subject complete the full course of the [PRTRT]?</questionText>
          <simpleDatatype>Char</simpleDatatype>
        </field>
        <field>
          <_links>
            <self>
              <href>/mdr/cdashig/2-1/domains/PR/fields/PRITRPYN</href>
              <title>Procedure Interrupted</title>
              <type>Data Collection Field</type>
            </self>
          </_links>
          <core>O</core>
          <definition>An indication whether the procedure was interrupted.</definition>
          <label>Procedure Interrupted</label>
          <name>PRITRPYN</name>
          <ordinal>35</ordinal>
          <questionText>Was the procedure interrupted?</questionText>
          <simpleDatatype>Char</simpleDatatype>
        </field>
        <field>
          <_links>
            <self>
              <href>/mdr/cdashig/2-1/domains/PR/fields/PRITRPRS</href>
              <title>Reason Procedure Interrupted</title>
              <type>Data Collection Field</type>
            </self>
          </_links>
          <core>O</core>
          <definition>An indication of why the intervention was interrupted.</definition>
          <label>Reason Procedure Interrupted</label>
          <name>PRITRPRS</name>
          <ordinal>36</ordinal>
          <questionText>Why was the procedure interrupted?</questionText>
          <simpleDatatype>Char</simpleDatatype>
        </field>
        <field>
          <_links>
            <self>
              <href>/mdr/cdashig/2-1/domains/PR/fields/PRCINTD</href>
              <title>Procedure Interruption Duration</title>
              <type>Data Collection Field</type>
            </self>
          </_links>
          <core>O</core>
          <definition>The collected duration of the procedure interruption.</definition>
          <label>Procedure Interruption Duration</label>
          <name>PRCINTD</name>
          <ordinal>37</ordinal>
          <questionText>What was the duration of the procedure interruption?</questionText>
          <simpleDatatype>Char</simpleDatatype>
        </field>
        <field>
          <_links>
            <self>
              <href>/mdr/cdashig/2-1/domains/PR/fields/PRCINTDU</href>
              <title>Procedure Interruption Duration Units</title>
              <type>Data Collection Field</type>
            </self>
          </_links>
          <core>O</core>
          <definition>The unit for the collected duration of the procedure interruption.</definition>
          <label>Procedure Interruption Duration Units</label>
          <name>PRCINTDU</name>
          <ordinal>38</ordinal>
          <questionText>What was the interruption duration unit?</questionText>
          <simpleDatatype>Char</simpleDatatype>
        </field>
        <field>
          <_links>
            <self>
              <href>/mdr/cdashig/2-1/domains/PR/fields/PRLLT</href>
              <title>Procedure Lowest Level Term</title>
              <type>Data Collection Field</type>
            </self>
          </_links>
          <core>O</core>
          <definition>MedDRA text description of the Lowest Level Term.</definition>
          <label>Procedure Lowest Level Term</label>
          <name>PRLLT</name>
          <ordinal>39</ordinal>
          <simpleDatatype>Char</simpleDatatype>
        </field>
        <field>
          <_links>
            <self>
              <href>/mdr/cdashig/2-1/domains/PR/fields/PRLLTCD</href>
              <title>Procedure Lowest Level Term Code</title>
              <type>Data Collection Field</type>
            </self>
          </_links>
          <core>O</core>
          <definition>MedDRA Lowest Level Term code.</definition>
          <label>Procedure Lowest Level Term Code</label>
          <name>PRLLTCD</name>
          <ordinal>40</ordinal>
          <simpleDatatype>Num</simpleDatatype>
        </field>
        <field>
          <_links>
            <self>
              <href>/mdr/cdashig/2-1/domains/PR/fields/PRPTCD</href>
              <title>Procedure Preferred Term Code</title>
              <type>Data Collection Field</type>
            </self>
          </_links>
          <core>O</core>
          <definition>MedDRA code for the Preferred Term.</definition>
          <label>Procedure Preferred Term Code</label>
          <name>PRPTCD</name>
          <ordinal>41</ordinal>
          <simpleDatatype>Num</simpleDatatype>
        </field>
        <field>
          <_links>
            <self>
              <href>/mdr/cdashig/2-1/domains/PR/fields/PRHLT</href>
              <title>Procedure High Level Term</title>
              <type>Data Collection Field</type>
            </self>
          </_links>
          <core>O</core>
          <definition>MedDRA text description of High Level Term from the primary path.</definition>
          <label>Procedure High Level Term</label>
          <name>PRHLT</name>
          <ordinal>42</ordinal>
          <simpleDatatype>Char</simpleDatatype>
        </field>
        <field>
          <_links>
            <self>
              <href>/mdr/cdashig/2-1/domains/PR/fields/PRHLTCD</href>
              <title>Procedure High Level Term Code</title>
              <type>Data Collection Field</type>
            </self>
          </_links>
          <core>O</core>
          <definition>MedDRA High Level Term code from the primary path.</definition>
          <label>Procedure High Level Term Code</label>
          <name>PRHLTCD</name>
          <ordinal>43</ordinal>
          <simpleDatatype>Num</simpleDatatype>
        </field>
        <field>
          <_links>
            <self>
              <href>/mdr/cdashig/2-1/domains/PR/fields/PRHLGT</href>
              <title>Procedure High Level Group Term</title>
              <type>Data Collection Field</type>
            </self>
          </_links>
          <core>O</core>
          <definition>MedDRA text description of the High Level Group Term from the primary path.</definition>
          <label>Procedure High Level Group Term</label>
          <name>PRHLGT</name>
          <ordinal>44</ordinal>
          <simpleDatatype>Char</simpleDatatype>
        </field>
        <field>
          <_links>
            <self>
              <href>/mdr/cdashig/2-1/domains/PR/fields/PRHLGTCD</href>
              <title>Procedure High Level Group Term Code</title>
              <type>Data Collection Field</type>
            </self>
          </_links>
          <core>O</core>
          <definition>MedDRA High Level Group Term code from the primary path.</definition>
          <label>Procedure High Level Group Term Code</label>
          <name>PRHLGTCD</name>
          <ordinal>45</ordinal>
          <simpleDatatype>Num</simpleDatatype>
        </field>
        <field>
          <_links>
            <self>
              <href>/mdr/cdashig/2-1/domains/PR/fields/PRSOC</href>
              <title>PR Primary System Organ Class</title>
              <type>Data Collection Field</type>
            </self>
          </_links>
          <core>O</core>
          <definition>MedDRA Primary System Organ Class description associated with the intervention.</definition>
          <label>PR Primary System Organ Class</label>
          <name>PRSOC</name>
          <ordinal>46</ordinal>
          <simpleDatatype>Char</simpleDatatype>
        </field>
        <field>
          <_links>
            <self>
              <href>/mdr/cdashig/2-1/domains/PR/fields/PRSOCCD</href>
              <title>PR Primary System Organ Class Code</title>
              <type>Data Collection Field</type>
            </self>
          </_links>
          <core>O</core>
          <definition>MedDRA Primary System Organ Class code.</definition>
          <label>PR Primary System Organ Class Code</label>
          <name>PRSOCCD</name>
          <ordinal>47</ordinal>
          <simpleDatatype>Num</simpleDatatype>
        </field>
        <label>Procedures</label>
        <name>PR</name>
        <ordinal>23</ordinal>
      </domain>
      <label>Interventions</label>
      <name>Interventions</name>
      <ordinal>2</ordinal>
    </class>
    <class>
      <_links>
        <self>
          <href>/mdr/cdashig/2-1/classes/Events</href>
          <title>Events</title>
          <type>Class</type>
        </self>
      </_links>
      <description>The Events class includes CDASH domains that define standards for the collection of occurrences or incidents occurring during a trial (e.g., adverse events, disposition) or prior to a trial (e.g., medical history). (Source: CDASHIG v2.1, Section 8.2)</description>
      <domain>
        <_links>
          <self>
            <href>/mdr/cdashig/2-1/domains/AE</href>
            <title>Adverse Events</title>
            <type>CDASH Domain</type>
          </self>
        </_links>
        <field>
          <_links>
            <self>
              <href>/mdr/cdashig/2-1/domains/AE/fields/STUDYID</href>
              <title>Study Identifier</title>
              <type>Data Collection Field</type>
            </self>
          </_links>
          <core>HR</core>
          <definition>A unique identifier for a study.</definition>
          <label>Study Identifier</label>
          <name>STUDYID</name>
          <ordinal>1</ordinal>
          <questionText>What is the study identifier?</questionText>
          <simpleDatatype>Char</simpleDatatype>
        </field>
        <field>
          <_links>
            <self>
              <href>/mdr/cdashig/2-1/domains/AE/fields/SITEID</href>
              <title>Study Site Identifier</title>
              <type>Data Collection Field</type>
            </self>
          </_links>
          <core>HR</core>
          <definition>A unique identifier for a site within a study.</definition>
          <label>Study Site Identifier</label>
          <name>SITEID</name>
          <ordinal>2</ordinal>
          <questionText>What is the site identifier?</questionText>
          <simpleDatatype>Char</simpleDatatype>
        </field>
        <field>
          <_links>
            <self>
              <href>/mdr/cdashig/2-1/domains/AE/fields/SUBJID</href>
              <title>Subject Identifier for the Study</title>
              <type>Data Collection Field</type>
            </self>
          </_links>
          <core>HR</core>
          <definition>A unique subject identifier within a site and a study.</definition>
          <label>Subject Identifier for the Study</label>
          <name>SUBJID</name>
          <ordinal>3</ordinal>
          <questionText>What [is/was] the (study) [subject/participant] identifier?</questionText>
          <simpleDatatype>Char</simpleDatatype>
        </field>
        <field>
          <_links>
            <self>
              <href>/mdr/cdashig/2-1/domains/AE/fields/AEYN</href>
              <title>Any Adverse Event</title>
              <type>Data Collection Field</type>
            </self>
          </_links>
          <core>O</core>
          <definition>An indication whether or not any AEs were experienced during the study.</definition>
          <label>Any Adverse Event</label>
          <name>AEYN</name>
          <ordinal>4</ordinal>
          <questionText>Were any adverse events experienced?</questionText>
          <simpleDatatype>Char</simpleDatatype>
        </field>
        <field>
          <_links>
            <self>
              <href>/mdr/cdashig/2-1/domains/AE/fields/AECAT</href>
              <title>Category for Adverse Event</title>
              <type>Data Collection Field</type>
            </self>
          </_links>
          <core>O</core>
          <definition>A grouping of topic-variable values based on user-defined characteristics.</definition>
          <label>Category for Adverse Event</label>
          <name>AECAT</name>
          <ordinal>5</ordinal>
          <questionText>What is the category of the adverse event?</questionText>
          <simpleDatatype>Char</simpleDatatype>
        </field>
        <field>
          <_links>
            <self>
              <href>/mdr/cdashig/2-1/domains/AE/fields/AESCAT</href>
              <title>Subcategory for Adverse Event</title>
              <type>Data Collection Field</type>
            </self>
          </_links>
          <core>O</core>
          <definition>A sub-division of the AECAT values based on user-defined characteristics.</definition>
          <label>Subcategory for Adverse Event</label>
          <name>AESCAT</name>
          <ordinal>6</ordinal>
          <questionText>What is the subcategory of the adverse event?</questionText>
          <simpleDatatype>Char</simpleDatatype>
        </field>
        <field>
          <_links>
            <self>
              <href>/mdr/cdashig/2-1/domains/AE/fields/AESPID</href>
              <title>AE Sponsor-Defined Identifier</title>
              <type>Data Collection Field</type>
            </self>
          </_links>
          <core>O</core>
          <definition>A sponsor-defined identifier. In CDASH, This is typically used for preprinted or auto-generated numbers on the CRF, or any other type of identifier that does not already have a defined CDASH identifier field.</definition>
          <label>AE Sponsor-Defined Identifier</label>
          <name>AESPID</name>
          <ordinal>7</ordinal>
          <questionText>[Sponsor-defined question]</questionText>
          <simpleDatatype>Char</simpleDatatype>
        </field>
        <field>
          <_links>
            <self>
              <href>/mdr/cdashig/2-1/domains/AE/fields/AETERM</href>
              <title>Reported Term for the Adverse Event</title>
              <type>Data Collection Field</type>
            </self>
          </_links>
          <core>HR</core>
          <definition>The reported or prespecified name of the adverse event.</definition>
          <label>Reported Term for the Adverse Event</label>
          <name>AETERM</name>
          <ordinal>8</ordinal>
          <questionText>What is the adverse event term?</questionText>
          <simpleDatatype>Char</simpleDatatype>
        </field>
        <field>
          <_links>
            <self>
              <href>/mdr/cdashig/2-1/domains/AE/fields/AEOCCUR</href>
              <title>Adverse Event Occurrence</title>
              <type>Data Collection Field</type>
            </self>
          </_links>
          <core>O</core>
          <definition>An indication whether a prespecified adverse event or a group of adverse events occurred when information about the occurrence of a specific event is solicited.</definition>
          <label>Adverse Event Occurrence</label>
          <name>AEOCCUR</name>
          <ordinal>9</ordinal>
          <questionText>Did the subject have [prespecified adverse event/group of adverse events]?</questionText>
          <simpleDatatype>Char</simpleDatatype>
        </field>
        <field>
          <_links>
            <self>
              <href>/mdr/cdashig/2-1/domains/AE/fields/AEPRESP</href>
              <title>prespecified Adverse Event</title>
              <type>Data Collection Field</type>
            </self>
          </_links>
          <core>O</core>
          <definition>An indication that a specific event, or group of events, are prespecified on a CRF.</definition>
          <label>prespecified Adverse Event</label>
          <name>AEPRESP</name>
          <ordinal>10</ordinal>
          <simpleDatatype>Char</simpleDatatype>
        </field>
        <field>
          <_links>
            <self>
              <href>/mdr/cdashig/2-1/domains/AE/fields/AESTDAT</href>
              <title>Adverse Event Start Date</title>
              <type>Data Collection Field</type>
            </self>
          </_links>
          <core>HR</core>
          <definition>The start date of the adverse event, represented in an unambiguous date format (e.g., DD-MON-YYYY).</definition>
          <label>Adverse Event Start Date</label>
          <name>AESTDAT</name>
          <ordinal>11</ordinal>
          <questionText>What is the adverse event start date?</questionText>
          <simpleDatatype>Char</simpleDatatype>
        </field>
        <field>
          <_links>
            <self>
              <href>/mdr/cdashig/2-1/domains/AE/fields/AESTTIM</href>
              <title>Start Time of Adverse Event</title>
              <type>Data Collection Field</type>
            </self>
          </_links>
          <core>R/C</core>
          <definition>The start time of the adverse event, represented in an unambiguous time format (e.g., hh:mm:ss)</definition>
          <label>Start Time of Adverse Event</label>
          <name>AESTTIM</name>
          <ordinal>12</ordinal>
          <questionText>What is the adverse event start time?</questionText>
          <simpleDatatype>Char</simpleDatatype>
        </field>
        <field>
          <_links>
            <self>
              <href>/mdr/cdashig/2-1/domains/AE/fields/AELOC</href>
              <title>AE Location of Event</title>
              <type>Data Collection Field</type>
            </self>
          </_links>
          <core>O</core>
          <definition>A description of the anatomical location relevant for the adverse event.</definition>
          <label>AE Location of Event</label>
          <name>AELOC</name>
          <ordinal>13</ordinal>
          <questionText>What is the anatomical location of the adverse event?</questionText>
          <simpleDatatype>Char</simpleDatatype>
        </field>
        <field>
          <_links>
            <self>
              <href>/mdr/cdashig/2-1/domains/AE/fields/AELAT</href>
              <title>Adverse Event Laterality</title>
              <type>Data Collection Field</type>
            </self>
          </_links>
          <core>O</core>
          <definition>Qualifier for anatomical location further detailing the side of the body relevant for the event.</definition>
          <label>Adverse Event Laterality</label>
          <name>AELAT</name>
          <ordinal>14</ordinal>
          <questionText>What is the side of the anatomical location of the adverse event?</questionText>
          <simpleDatatype>Char</simpleDatatype>
        </field>
        <field>
          <_links>
            <self>
              <href>/mdr/cdashig/2-1/domains/AE/fields/AEDIR</href>
              <title>Adverse Event Directionality</title>
              <type>Data Collection Field</type>
            </self>
          </_links>
          <core>O</core>
          <definition>Qualifier further detailing the position of the anatomical location relative to the center of the body, organ, or specimen.</definition>
          <label>Adverse Event Directionality</label>
          <name>AEDIR</name>
          <ordinal>15</ordinal>
          <questionText>What is the directionality of the anatomical location of the adverse event?</questionText>
          <simpleDatatype>Char</simpleDatatype>
        </field>
        <field>
          <_links>
            <self>
              <href>/mdr/cdashig/2-1/domains/AE/fields/AEPORTOT</href>
              <title>AE Location Portion or Totality</title>
              <type>Data Collection Field</type>
            </self>
          </_links>
          <core>O</core>
          <definition>Qualifier for anatomical location further detailing the distribution (i.e., arrangement of, apportioning of).</definition>
          <label>AE Location Portion or Totality</label>
          <name>AEPORTOT</name>
          <ordinal>16</ordinal>
          <questionText>What is the portion or totality of the anatomical location of the adverse event?</questionText>
          <simpleDatatype>Char</simpleDatatype>
        </field>
        <field>
          <_links>
            <self>
              <href>/mdr/cdashig/2-1/domains/AE/fields/AEONGO</href>
              <title>Ongoing Adverse Event</title>
              <type>Data Collection Field</type>
            </self>
          </_links>
          <core>O</core>
          <definition>Indication that an adverse event is ongoing when no End Date is provided.</definition>
          <label>Ongoing Adverse Event</label>
          <name>AEONGO</name>
          <ordinal>17</ordinal>
          <questionText>Is the adverse event ongoing (as of [the study-specific time point or period])?</questionText>
          <simpleDatatype>Char</simpleDatatype>
        </field>
        <field>
          <_links>
            <self>
              <href>/mdr/cdashig/2-1/domains/AE/fields/AEENDAT</href>
              <title>Adverse Event End Date</title>
              <type>Data Collection Field</type>
            </self>
          </_links>
          <core>R/C</core>
          <definition>The date when the adverse event resolved/ended, represented in an unambiguous date format (e.g., DD-MON-YYYY).</definition>
          <label>Adverse Event End Date</label>
          <name>AEENDAT</name>
          <ordinal>18</ordinal>
          <questionText>What was the adverse event end date?</questionText>
          <simpleDatatype>Char</simpleDatatype>
        </field>
        <field>
          <_links>
            <self>
              <href>/mdr/cdashig/2-1/domains/AE/fields/AEENTIM</href>
              <title>End Time of Adverse Event</title>
              <type>Data Collection Field</type>
            </self>
          </_links>
          <core>R/C</core>
          <definition>The time when the adverse event ended/resolved, represented in an unambiguous time format (e.g., hh:mm:ss).</definition>
          <label>End Time of Adverse Event</label>
          <name>AEENTIM</name>
          <ordinal>19</ordinal>
          <questionText>What was the adverse event end time?</questionText>
          <simpleDatatype>Char</simpleDatatype>
        </field>
        <field>
          <_links>
            <self>
              <href>/mdr/cdashig/2-1/domains/AE/fields/AESEV</href>
              <title>AE Severity/Intensity</title>
              <type>Data Collection Field</type>
            </self>
          </_links>
          <core>R/C</core>
          <definition>The severity or intensity of the event.</definition>
          <label>AE Severity/Intensity</label>
          <name>AESEV</name>
          <ordinal>20</ordinal>
          <questionText>What is the severity of the adverse event?</questionText>
          <simpleDatatype>Char</simpleDatatype>
        </field>
        <field>
          <_links>
            <self>
              <href>/mdr/cdashig/2-1/domains/AE/fields/AETOXGR</href>
              <title>AE Standard Toxicity Grade</title>
              <type>Data Collection Field</type>
            </self>
          </_links>
          <core>R/C</core>
          <definition>The grade of the severity of the event using a standard "toxicity" scale (e.g., NCI CTCAE).</definition>
          <label>AE Standard Toxicity Grade</label>
          <name>AETOXGR</name>
          <ordinal>21</ordinal>
          <questionText>What is the [NCI CTCAE/Name of scale (toxicity) grade] of the adverse event?</questionText>
          <simpleDatatype>Char</simpleDatatype>
        </field>
        <field>
          <_links>
            <self>
              <href>/mdr/cdashig/2-1/domains/AE/fields/AESER</href>
              <title>AE Serious Event</title>
              <type>Data Collection Field</type>
            </self>
          </_links>
          <core>R/C</core>
          <definition>An indication whether or not the adverse event is determined to be "serious" based on what is defined in the protocol.</definition>
          <label>AE Serious Event</label>
          <name>AESER</name>
          <ordinal>22</ordinal>
          <questionText>Was the adverse event serious?</questionText>
          <simpleDatatype>Char</simpleDatatype>
        </field>
        <field>
          <_links>
            <self>
              <href>/mdr/cdashig/2-1/domains/AE/fields/AESDTH</href>
              <title>Results in Death</title>
              <type>Data Collection Field</type>
            </self>
          </_links>
          <core>R/C</core>
          <definition>An indication the serious adverse event resulted in death.</definition>
          <label>Results in Death</label>
          <name>AESDTH</name>
          <ordinal>23</ordinal>
          <questionText>Did the adverse event result in death?</questionText>
          <simpleDatatype>Char</simpleDatatype>
        </field>
        <field>
          <_links>
            <self>
              <href>/mdr/cdashig/2-1/domains/AE/fields/DTHDAT</href>
              <title>Death Date</title>
              <type>Data Collection Field</type>
            </self>
          </_links>
          <core>O</core>
          <definition>Date of death for any subject who died.</definition>
          <label>Death Date</label>
          <name>DTHDAT</name>
          <ordinal>24</ordinal>
          <questionText>What [is/was] the subject's date of death?</questionText>
          <simpleDatatype>Char</simpleDatatype>
        </field>
        <field>
          <_links>
            <self>
              <href>/mdr/cdashig/2-1/domains/AE/fields/AESLIFE</href>
              <title>Is Life Threatening</title>
              <type>Data Collection Field</type>
            </self>
          </_links>
          <core>R/C</core>
          <definition>An indication the serious adverse event was life threatening.</definition>
          <label>Is Life Threatening</label>
          <name>AESLIFE</name>
          <ordinal>25</ordinal>
          <questionText>Was the adverse event life threatening?</questionText>
          <simpleDatatype>Char</simpleDatatype>
        </field>
        <field>
          <_links>
            <self>
              <href>/mdr/cdashig/2-1/domains/AE/fields/AESHOSP</href>
              <title>Requires or Prolongs Hospitalization</title>
              <type>Data Collection Field</type>
            </self>
          </_links>
          <core>R/C</core>
          <definition>An indication the serious adverse event resulted in an initial or prolonged hospitalization.</definition>
          <label>Requires or Prolongs Hospitalization</label>
          <name>AESHOSP</name>
          <ordinal>26</ordinal>
          <questionText>Did the adverse event result in initial or prolonged hospitalization for the subject?</questionText>
          <simpleDatatype>Char</simpleDatatype>
        </field>
        <field>
          <_links>
            <self>
              <href>/mdr/cdashig/2-1/domains/AE/fields/AESDISAB</href>
              <title>Persist or Signif Disability/Incapacity</title>
              <type>Data Collection Field</type>
            </self>
          </_links>
          <core>R/C</core>
          <definition>An indication the serious adverse event was associated with a persistent or significant disability or incapacity.</definition>
          <label>Persist or Signif Disability/Incapacity</label>
          <name>AESDISAB</name>
          <ordinal>27</ordinal>
          <questionText>Did the adverse event result in disability or permanent damage?</questionText>
          <simpleDatatype>Char</simpleDatatype>
        </field>
        <field>
          <_links>
            <self>
              <href>/mdr/cdashig/2-1/domains/AE/fields/AESCONG</href>
              <title>Congenital Anomaly or Birth Defect</title>
              <type>Data Collection Field</type>
            </self>
          </_links>
          <core>R/C</core>
          <definition>An indication the serious adverse event was associated with a congenital anomaly or birth defect.</definition>
          <label>Congenital Anomaly or Birth Defect</label>
          <name>AESCONG</name>
          <ordinal>28</ordinal>
          <questionText>Was the adverse event associated with a congenital anomaly or birth defect?</questionText>
          <simpleDatatype>Char</simpleDatatype>
        </field>
        <field>
          <_links>
            <self>
              <href>/mdr/cdashig/2-1/domains/AE/fields/AESINTV</href>
              <title>Needs Intervention to Prevent Impairment</title>
              <type>Data Collection Field</type>
            </self>
          </_links>
          <core>O</core>
          <definition>An indication an adverse event required medical or surgical intervention to preclude permanent impairment of a body function, or prevent permanent damage to a body structure, due to the use of a medical product.</definition>
          <label>Needs Intervention to Prevent Impairment</label>
          <name>AESINTV</name>
          <ordinal>29</ordinal>
          <questionText>Did the adverse event require intervention to prevent permanent impairment or damage resulting from the use of a medical product?</questionText>
          <simpleDatatype>Char</simpleDatatype>
        </field>
        <field>
          <_links>
            <self>
              <href>/mdr/cdashig/2-1/domains/AE/fields/AESMIE</href>
              <title>Other Medically Important Serious Event</title>
              <type>Data Collection Field</type>
            </self>
          </_links>
          <core>R/C</core>
          <definition>An indication additional categories for seriousness apply.</definition>
          <label>Other Medically Important Serious Event</label>
          <name>AESMIE</name>
          <ordinal>30</ordinal>
          <questionText>Was the adverse event a medically important event not covered by other serious criteria?</questionText>
          <simpleDatatype>Char</simpleDatatype>
        </field>
        <field>
          <_links>
            <self>
              <href>/mdr/cdashig/2-1/domains/AE/fields/AESCAN</href>
              <title>Involves Cancer</title>
              <type>Data Collection Field</type>
            </self>
          </_links>
          <core>O</core>
          <definition>An indication the serious event was associated with the development of cancer.</definition>
          <label>Involves Cancer</label>
          <name>AESCAN</name>
          <ordinal>31</ordinal>
          <questionText>Was the adverse event associated with the development of cancer?</questionText>
          <simpleDatatype>Char</simpleDatatype>
        </field>
        <field>
          <_links>
            <self>
              <href>/mdr/cdashig/2-1/domains/AE/fields/AESOD</href>
              <title>Occurred with Overdose</title>
              <type>Data Collection Field</type>
            </self>
          </_links>
          <core>O</core>
          <definition>An indication the serious event occurred with an overdose.</definition>
          <label>Occurred with Overdose</label>
          <name>AESOD</name>
          <ordinal>32</ordinal>
          <questionText>Did the adverse event occur with an overdose?</questionText>
          <simpleDatatype>Char</simpleDatatype>
        </field>
        <field>
          <_links>
            <self>
              <href>/mdr/cdashig/2-1/domains/AE/fields/AEREL</href>
              <title>AE Causality</title>
              <type>Data Collection Field</type>
            </self>
          </_links>
          <core>HR</core>
          <definition>An indication the study treatment had a causal effect on the adverse event, as determined by the clinician/investigator.</definition>
          <label>AE Causality</label>
          <name>AEREL</name>
          <ordinal>33</ordinal>
          <questionText>Was this adverse event related to study treatment?</questionText>
          <simpleDatatype>Char</simpleDatatype>
        </field>
        <field>
          <_links>
            <self>
              <href>/mdr/cdashig/2-1/domains/AE/fields/AEACN</href>
              <title>Action Taken with Study Treatment</title>
              <type>Data Collection Field</type>
            </self>
          </_links>
          <core>R/C</core>
          <definition>A description of the action taken with study treatment as a result of the event.</definition>
          <label>Action Taken with Study Treatment</label>
          <name>AEACN</name>
          <ordinal>34</ordinal>
          <questionText>What action was taken with study treatment?</questionText>
          <simpleDatatype>Char</simpleDatatype>
        </field>
        <field>
          <_links>
            <self>
              <href>/mdr/cdashig/2-1/domains/AE/fields/AEACNDEV</href>
              <title>Actions Taken with Device</title>
              <type>Data Collection Field</type>
            </self>
          </_links>
          <core>O</core>
          <definition>A description of the action taken, with respect to a device used in a study (which may or may not be the device under study), as a result of the event.</definition>
          <label>Actions Taken with Device</label>
          <name>AEACNDEV</name>
          <ordinal>35</ordinal>
          <questionText>What action was taken with a device used in the study?</questionText>
          <simpleDatatype>Char</simpleDatatype>
        </field>
        <field>
          <_links>
            <self>
              <href>/mdr/cdashig/2-1/domains/AE/fields/AEACNOTH</href>
              <title>Other Action Taken</title>
              <type>Data Collection Field</type>
            </self>
          </_links>
          <core>O</core>
          <definition>A description of other action taken as a result of the event that is unrelated to dose adjustments of the study treatment.</definition>
          <label>Other Action Taken</label>
          <name>AEACNOTH</name>
          <ordinal>36</ordinal>
          <questionText>What other action was taken?</questionText>
          <simpleDatatype>Char</simpleDatatype>
        </field>
        <field>
          <_links>
            <self>
              <href>/mdr/cdashig/2-1/domains/AE/fields/AEOUT</href>
              <title>Outcome of Adverse Event</title>
              <type>Data Collection Field</type>
            </self>
          </_links>
          <core>R/C</core>
          <definition>A description of the outcome of an event.</definition>
          <label>Outcome of Adverse Event</label>
          <name>AEOUT</name>
          <ordinal>37</ordinal>
          <questionText>What is the outcome of this adverse event?</questionText>
          <simpleDatatype>Char</simpleDatatype>
        </field>
        <field>
          <_links>
            <self>
              <href>/mdr/cdashig/2-1/domains/AE/fields/AEDIS</href>
              <title>AE Caused Study Discontinuation</title>
              <type>Data Collection Field</type>
            </self>
          </_links>
          <core>O</core>
          <definition>An indication whether the event caused the subject to discontinue from the study.</definition>
          <label>AE Caused Study Discontinuation</label>
          <name>AEDIS</name>
          <ordinal>38</ordinal>
          <questionText>Did the adverse event cause the subject to be discontinued from the study?</questionText>
          <simpleDatatype>Char</simpleDatatype>
        </field>
        <field>
          <_links>
            <self>
              <href>/mdr/cdashig/2-1/domains/AE/fields/AERLNSYN</href>
              <title>AE Related to Non-Study Treatment</title>
              <type>Data Collection Field</type>
            </self>
          </_links>
          <core>O</core>
          <definition>An indication whether in the investigator's opinion the event may have been due to a treatment other than study treatment.</definition>
          <label>AE Related to Non-Study Treatment</label>
          <name>AERLNSYN</name>
          <ordinal>39</ordinal>
          <questionText>Was this adverse event due to treatment other than study treatment?</questionText>
          <simpleDatatype>Char</simpleDatatype>
        </field>
        <field>
          <_links>
            <self>
              <href>/mdr/cdashig/2-1/domains/AE/fields/AERELNST</href>
              <title>AE Relationship to Non-Study Treatment</title>
              <type>Data Collection Field</type>
            </self>
          </_links>
          <core>O</core>
          <definition>Description of the investigator's opinion as to whether the adverse event may have been due to a treatment other than study treatment.</definition>
          <label>AE Relationship to Non-Study Treatment</label>
          <name>AERELNST</name>
          <ordinal>40</ordinal>
          <questionText>What is the relationship to non-study treatment?</questionText>
          <simpleDatatype>Char</simpleDatatype>
        </field>
        <field>
          <_links>
            <self>
              <href>/mdr/cdashig/2-1/domains/AE/fields/AESI</href>
              <title>Adverse Event of Special Interest</title>
              <type>Data Collection Field</type>
            </self>
          </_links>
          <core>O</core>
          <definition>An adverse event of special interest (serious or non-serious) is one of scientific and medical concern specific to the sponsor's product or program, for which ongoing monitoring and rapid communication by the investigator to the sponsor can be appropriate. Such an event might warrant further investigation in order to characterize and understand it. Depending on the nature of the event, rapid communication by the trial sponsor to other parties (e.g., regulators) might also be warranted.</definition>
          <label>Adverse Event of Special Interest</label>
          <name>AESI</name>
          <ordinal>41</ordinal>
          <questionText>Is this event of special interest?</questionText>
          <simpleDatatype>Char</simpleDatatype>
        </field>
        <field>
          <_links>
            <self>
              <href>/mdr/cdashig/2-1/domains/AE/fields/AEPATT</href>
              <title>Pattern of Adverse Event</title>
              <type>Data Collection Field</type>
            </self>
          </_links>
          <core>O</core>
          <definition>Used to indicate the pattern of the event over time.</definition>
          <label>Pattern of Adverse Event</label>
          <name>AEPATT</name>
          <ordinal>42</ordinal>
          <questionText>What is the adverse event pattern?</questionText>
          <simpleDatatype>Char</simpleDatatype>
        </field>
        <field>
          <_links>
            <self>
              <href>/mdr/cdashig/2-1/domains/AE/fields/AECONTRT</href>
              <title>Concomitant or Additional Trtmnt Given</title>
              <type>Data Collection Field</type>
            </self>
          </_links>
          <core>O</core>
          <definition>An indication whether a concomitant or additional treatment given because of the occurrence of the event.</definition>
          <label>Concomitant or Additional Trtmnt Given</label>
          <name>AECONTRT</name>
          <ordinal>43</ordinal>
          <questionText>Was a concomitant or additional treatment given due to this adverse event?</questionText>
          <simpleDatatype>Char</simpleDatatype>
        </field>
        <field>
          <_links>
            <self>
              <href>/mdr/cdashig/2-1/domains/AE/fields/AEMODIFY</href>
              <title>AE Modified Reported Term</title>
              <type>Data Collection Field</type>
            </self>
          </_links>
          <core>R/C</core>
          <definition>If the value for AETERM is modified to facilitate coding, then AEMODIFY will contain the modified text.</definition>
          <label>AE Modified Reported Term</label>
          <name>AEMODIFY</name>
          <ordinal>44</ordinal>
          <simpleDatatype>Char</simpleDatatype>
        </field>
        <field>
          <_links>
            <self>
              <href>/mdr/cdashig/2-1/domains/AE/fields/AEDECOD</href>
              <title>AE Dictionary-Derived Term</title>
              <type>Data Collection Field</type>
            </self>
          </_links>
          <core>O</core>
          <definition>The dictionary or standardized text description of AETERM or the modified topic variable (AEMODIFY), if applicable.</definition>
          <label>AE Dictionary-Derived Term</label>
          <name>AEDECOD</name>
          <ordinal>45</ordinal>
          <simpleDatatype>Char</simpleDatatype>
        </field>
        <field>
          <_links>
            <self>
              <href>/mdr/cdashig/2-1/domains/AE/fields/AELLT</href>
              <title>AE Lowest Level Term</title>
              <type>Data Collection Field</type>
            </self>
          </_links>
          <core>R/C</core>
          <definition>MedDRA text description of the Lowest Level Term.</definition>
          <label>AE Lowest Level Term</label>
          <name>AELLT</name>
          <ordinal>46</ordinal>
          <simpleDatatype>Char</simpleDatatype>
        </field>
        <field>
          <_links>
            <self>
              <href>/mdr/cdashig/2-1/domains/AE/fields/AELLTCD</href>
              <title>AE Lowest Level Term Code</title>
              <type>Data Collection Field</type>
            </self>
          </_links>
          <core>R/C</core>
          <definition>MedDRA Lowest Level Term code.</definition>
          <label>AE Lowest Level Term Code</label>
          <name>AELLTCD</name>
          <ordinal>47</ordinal>
          <simpleDatatype>Num</simpleDatatype>
        </field>
        <field>
          <_links>
            <self>
              <href>/mdr/cdashig/2-1/domains/AE/fields/AEPTCD</href>
              <title>AE Preferred Term Code</title>
              <type>Data Collection Field</type>
            </self>
          </_links>
          <core>R/C</core>
          <definition>MedDRA code for the Preferred Term.</definition>
          <label>AE Preferred Term Code</label>
          <name>AEPTCD</name>
          <ordinal>48</ordinal>
          <simpleDatatype>Num</simpleDatatype>
        </field>
        <field>
          <_links>
            <self>
              <href>/mdr/cdashig/2-1/domains/AE/fields/AEHLT</href>
              <title>AE High Level Term</title>
              <type>Data Collection Field</type>
            </self>
          </_links>
          <core>R/C</core>
          <definition>MedDRA text description of the High Level Term from the primary path.</definition>
          <label>AE High Level Term</label>
          <name>AEHLT</name>
          <ordinal>49</ordinal>
          <simpleDatatype>Char</simpleDatatype>
        </field>
        <field>
          <_links>
            <self>
              <href>/mdr/cdashig/2-1/domains/AE/fields/AEHLTCD</href>
              <title>AE High Level Term Code</title>
              <type>Data Collection Field</type>
            </self>
          </_links>
          <core>R/C</core>
          <definition>MedDRA High Level Term code from the primary path.</definition>
          <label>AE High Level Term Code</label>
          <name>AEHLTCD</name>
          <ordinal>50</ordinal>
          <simpleDatatype>Num</simpleDatatype>
        </field>
        <field>
          <_links>
            <self>
              <href>/mdr/cdashig/2-1/domains/AE/fields/AEHLGT</href>
              <title>AE High Level Group Term</title>
              <type>Data Collection Field</type>
            </self>
          </_links>
          <core>R/C</core>
          <definition>MedDRA text description of the High Level Group Term from the primary path.</definition>
          <label>AE High Level Group Term</label>
          <name>AEHLGT</name>
          <ordinal>51</ordinal>
          <simpleDatatype>Char</simpleDatatype>
        </field>
        <field>
          <_links>
            <self>
              <href>/mdr/cdashig/2-1/domains/AE/fields/AEHLGTCD</href>
              <title>AE High Level Group Term Code</title>
              <type>Data Collection Field</type>
            </self>
          </_links>
          <core>R/C</core>
          <definition>MedDRA High Level Group Term code from the primary path.</definition>
          <label>AE High Level Group Term Code</label>
          <name>AEHLGTCD</name>
          <ordinal>52</ordinal>
          <simpleDatatype>Num</simpleDatatype>
        </field>
        <field>
          <_links>
            <self>
              <href>/mdr/cdashig/2-1/domains/AE/fields/AESOC</href>
              <title>AE Primary System Organ Class</title>
              <type>Data Collection Field</type>
            </self>
          </_links>
          <core>R/C</core>
          <definition>MedDRA Primary System Organ Class text description associated with the event.</definition>
          <label>AE Primary System Organ Class</label>
          <name>AESOC</name>
          <ordinal>53</ordinal>
          <simpleDatatype>Char</simpleDatatype>
        </field>
        <field>
          <_links>
            <self>
              <href>/mdr/cdashig/2-1/domains/AE/fields/AESOCCD</href>
              <title>AE Primary System Organ Class Code</title>
              <type>Data Collection Field</type>
            </self>
          </_links>
          <core>R/C</core>
          <definition>MedDRA code for the primary System Organ Class.</definition>
          <label>AE Primary System Organ Class Code</label>
          <name>AESOCCD</name>
          <ordinal>54</ordinal>
          <simpleDatatype>Num</simpleDatatype>
        </field>
        <field>
          <_links>
            <self>
              <href>/mdr/cdashig/2-1/domains/AE/fields/AEACNOYN</href>
              <title>Any Other Actions Taken</title>
              <type>Data Collection Field</type>
            </self>
          </_links>
          <core>O</core>
          <definition>An indication whether any other actions were taken in response to the adverse event that were unrelated to study treatment dose changes or other non-study treatments given because of this adverse event.</definition>
          <label>Any Other Actions Taken</label>
          <name>AEACNOYN</name>
          <ordinal>55</ordinal>
          <questionText>Were any other actions taken in response to this adverse event?</questionText>
          <simpleDatatype>Char</simpleDatatype>
        </field>
        <label>Adverse Events</label>
        <name>AE</name>
        <ordinal>1</ordinal>
      </domain>
      <domain>
        <_links>
          <self>
            <href>/mdr/cdashig/2-1/domains/MH</href>
            <title>Medical History</title>
            <type>CDASH Domain</type>
          </self>
        </_links>
        <field>
          <_links>
            <self>
              <href>/mdr/cdashig/2-1/domains/MH/fields/STUDYID</href>
              <title>Study Identifier</title>
              <type>Data Collection Field</type>
            </self>
          </_links>
          <core>HR</core>
          <definition>A unique identifier for a study.</definition>
          <label>Study Identifier</label>
          <name>STUDYID</name>
          <ordinal>1</ordinal>
          <questionText>What is the study identifier?</questionText>
          <simpleDatatype>Char</simpleDatatype>
        </field>
        <field>
          <_links>
            <self>
              <href>/mdr/cdashig/2-1/domains/MH/fields/SITEID</href>
              <title>Study Site Identifier</title>
              <type>Data Collection Field</type>
            </self>
          </_links>
          <core>HR</core>
          <definition>A unique identifier for a site within a study.</definition>
          <label>Study Site Identifier</label>
          <name>SITEID</name>
          <ordinal>2</ordinal>
          <questionText>What is the site identifier?</questionText>
          <simpleDatatype>Char</simpleDatatype>
        </field>
        <field>
          <_links>
            <self>
              <href>/mdr/cdashig/2-1/domains/MH/fields/SUBJID</href>
              <title>Subject Identifier for the Study</title>
              <type>Data Collection Field</type>
            </self>
          </_links>
          <core>HR</core>
          <definition>A unique subject identifier within a site and a study.</definition>
          <label>Subject Identifier for the Study</label>
          <name>SUBJID</name>
          <ordinal>3</ordinal>
          <questionText>What [is/was] the (study) [subject/participant] identifier?</questionText>
          <simpleDatatype>Char</simpleDatatype>
        </field>
        <field>
          <_links>
            <self>
              <href>/mdr/cdashig/2-1/domains/MH/fields/MHYN</href>
              <title>Any Medical History Event</title>
              <type>Data Collection Field</type>
            </self>
          </_links>
          <core>O</core>
          <definition>An indication whether or not there was any medical history to report.</definition>
          <label>Any Medical History Event</label>
          <name>MHYN</name>
          <ordinal>4</ordinal>
          <questionText>Were any medical conditions or events reported?; Has the subject had any medical conditions or events?</questionText>
          <simpleDatatype>Char</simpleDatatype>
        </field>
        <field>
          <_links>
            <self>
              <href>/mdr/cdashig/2-1/domains/MH/fields/MHCAT</href>
              <title>Category for Medical History</title>
              <type>Data Collection Field</type>
            </self>
          </_links>
          <core>R/C</core>
          <definition>A grouping of topic-variable values based on user-defined characteristics.</definition>
          <label>Category for Medical History</label>
          <name>MHCAT</name>
          <ordinal>5</ordinal>
          <questionText>What was the category of the medical history?</questionText>
          <simpleDatatype>Char</simpleDatatype>
        </field>
        <field>
          <_links>
            <self>
              <href>/mdr/cdashig/2-1/domains/MH/fields/MHSCAT</href>
              <title>Subcategory for Medical History</title>
              <type>Data Collection Field</type>
            </self>
          </_links>
          <core>O</core>
          <definition>A sub-division of the MHCAT values based on user-defined characteristics.</definition>
          <label>Subcategory for Medical History</label>
          <name>MHSCAT</name>
          <ordinal>6</ordinal>
          <questionText>What was the subcategory of the medical history?</questionText>
          <simpleDatatype>Char</simpleDatatype>
        </field>
        <field>
          <_links>
            <self>
              <href>/mdr/cdashig/2-1/domains/MH/fields/MHDAT</href>
              <title>Medical History Collection Date</title>
              <type>Data Collection Field</type>
            </self>
          </_links>
          <core>O</core>
          <definition>The date on which the medical history was collected, represented in an unambiguous date format (e.g., DD-MON-YYYY).</definition>
          <label>Medical History Collection Date</label>
          <name>MHDAT</name>
          <ordinal>7</ordinal>
          <questionText>What was the date the medical history was collected?</questionText>
          <simpleDatatype>Char</simpleDatatype>
        </field>
        <field>
          <_links>
            <self>
              <href>/mdr/cdashig/2-1/domains/MH/fields/MHSPID</href>
              <title>MH Sponsor-Defined Identifier</title>
              <type>Data Collection Field</type>
            </self>
          </_links>
          <core>O</core>
          <definition>A sponsor-defined identifier. In CDASH, This is typically used for preprinted or auto-generated numbers on the CRF, or any other type of identifier that does not already have a defined CDASH identifier field.</definition>
          <label>MH Sponsor-Defined Identifier</label>
          <name>MHSPID</name>
          <ordinal>8</ordinal>
          <questionText>[Sponsor-defined question]</questionText>
          <simpleDatatype>Char</simpleDatatype>
        </field>
        <field>
          <_links>
            <self>
              <href>/mdr/cdashig/2-1/domains/MH/fields/MHEVDTYP</href>
              <title>Medical History Event Date Type</title>
              <type>Data Collection Field</type>
            </self>
          </_links>
          <core>O</core>
          <definition>Specifies the aspect of the medical condition or event by which MHSTDTC and/or the MHENDTC is defined.</definition>
          <label>Medical History Event Date Type</label>
          <name>MHEVDTYP</name>
          <ordinal>9</ordinal>
          <questionText>What was the medical history event date type?</questionText>
          <simpleDatatype>Char</simpleDatatype>
        </field>
        <field>
          <_links>
            <self>
              <href>/mdr/cdashig/2-1/domains/MH/fields/MHTERM</href>
              <title>Reported Term for the Medical History</title>
              <type>Data Collection Field</type>
            </self>
          </_links>
          <core>HR</core>
          <definition>The reported or prespecified name of the medical condition or event.</definition>
          <label>Reported Term for the Medical History</label>
          <name>MHTERM</name>
          <ordinal>10</ordinal>
          <questionText>What is the medical condition or event term?</questionText>
          <simpleDatatype>Char</simpleDatatype>
        </field>
        <field>
          <_links>
            <self>
              <href>/mdr/cdashig/2-1/domains/MH/fields/MHOCCUR</href>
              <title>Medical History Occurrence</title>
              <type>Data Collection Field</type>
            </self>
          </_links>
          <core>O</core>
          <definition>An indication whether a prespecified medical condition/event or a group of medical conditions/events occurred when information about the occurrence of a specific event is solicited.</definition>
          <label>Medical History Occurrence</label>
          <name>MHOCCUR</name>
          <ordinal>11</ordinal>
          <questionText>Did the subject have [prespecified medical condition/event/group of medical conditions]; Is the [prespecified medical occurring]?</questionText>
          <simpleDatatype>Char</simpleDatatype>
        </field>
        <field>
          <_links>
            <self>
              <href>/mdr/cdashig/2-1/domains/MH/fields/MHPRESP</href>
              <title>Medical History Event prespecified</title>
              <type>Data Collection Field</type>
            </self>
          </_links>
          <core>O</core>
          <definition>An indication that a specific event, or group of events, are prespecified on a CRF.</definition>
          <label>Medical History Event prespecified</label>
          <name>MHPRESP</name>
          <ordinal>12</ordinal>
          <simpleDatatype>Char</simpleDatatype>
        </field>
        <field>
          <_links>
            <self>
              <href>/mdr/cdashig/2-1/domains/MH/fields/MHPRIOR</href>
              <title>Prior Medical History Event</title>
              <type>Data Collection Field</type>
            </self>
          </_links>
          <core>O</core>
          <definition>An indication whether the event occurred prior to study start.</definition>
          <label>Prior Medical History Event</label>
          <name>MHPRIOR</name>
          <ordinal>13</ordinal>
          <questionText>Did the medical condition or event start prior to [MHSTTPT]?; Did the medical condition or event start prior to study start?</questionText>
          <simpleDatatype>Char</simpleDatatype>
        </field>
        <field>
          <_links>
            <self>
              <href>/mdr/cdashig/2-1/domains/MH/fields/MHONGO</href>
              <title>Ongoing Medical History Event</title>
              <type>Data Collection Field</type>
            </self>
          </_links>
          <core>O</core>
          <definition>Indication the medical condition or event is ongoing when no end date is provided.</definition>
          <label>Ongoing Medical History Event</label>
          <name>MHONGO</name>
          <ordinal>14</ordinal>
          <questionText>Is the medical condition or event ongoing (as of the [study-specific timepoint or period])?</questionText>
          <simpleDatatype>Char</simpleDatatype>
        </field>
        <field>
          <_links>
            <self>
              <href>/mdr/cdashig/2-1/domains/MH/fields/MHCTRL</href>
              <title>MH Disease or Symptom Under Control</title>
              <type>Data Collection Field</type>
            </self>
          </_links>
          <core>O</core>
          <definition>Indication whether the medical condition or event is under control at the time of data collection.</definition>
          <label>MH Disease or Symptom Under Control</label>
          <name>MHCTRL</name>
          <ordinal>15</ordinal>
          <questionText>Is the medical condition or event under control?</questionText>
          <simpleDatatype>Char</simpleDatatype>
        </field>
        <field>
          <_links>
            <self>
              <href>/mdr/cdashig/2-1/domains/MH/fields/MHSTDAT</href>
              <title>Medical History Event Start Date</title>
              <type>Data Collection Field</type>
            </self>
          </_links>
          <core>O</core>
          <definition>The start date of medical history event or condition represented in an unambiguous date format (e.g., DD-MON-YYYY).</definition>
          <label>Medical History Event Start Date</label>
          <name>MHSTDAT</name>
          <ordinal>16</ordinal>
          <questionText>What [is/was] the [medical event or condition/category of the event] start date?</questionText>
          <simpleDatatype>Char</simpleDatatype>
        </field>
        <field>
          <_links>
            <self>
              <href>/mdr/cdashig/2-1/domains/MH/fields/MHENDAT</href>
              <title>Medical History Event End Date</title>
              <type>Data Collection Field</type>
            </self>
          </_links>
          <core>O</core>
          <definition>The end date of medical history event or condition represented in an unambiguous date format (e.g., DD-MON-YYYY).</definition>
          <label>Medical History Event End Date</label>
          <name>MHENDAT</name>
          <ordinal>17</ordinal>
          <questionText>What[is/was] the[medical event or condition/category of the event] end date?</questionText>
          <simpleDatatype>Char</simpleDatatype>
        </field>
        <field>
          <_links>
            <self>
              <href>/mdr/cdashig/2-1/domains/MH/fields/MHLOC</href>
              <title>Medical History Event Location</title>
              <type>Data Collection Field</type>
            </self>
          </_links>
          <core>O</core>
          <definition>A description of the anatomical location relevant for the medical condition or event.</definition>
          <label>Medical History Event Location</label>
          <name>MHLOC</name>
          <ordinal>18</ordinal>
          <questionText>What was the anatomical location of the medical condition or event?</questionText>
          <simpleDatatype>Char</simpleDatatype>
        </field>
        <field>
          <_links>
            <self>
              <href>/mdr/cdashig/2-1/domains/MH/fields/MHLAT</href>
              <title>Medical History Event Laterality</title>
              <type>Data Collection Field</type>
            </self>
          </_links>
          <core>O</core>
          <definition>Qualifier for anatomical location further detailing the side of the body relevant for the event.</definition>
          <label>Medical History Event Laterality</label>
          <name>MHLAT</name>
          <ordinal>19</ordinal>
          <questionText>What was the side of the anatomical location of the medical condition or event?</questionText>
          <simpleDatatype>Char</simpleDatatype>
        </field>
        <field>
          <_links>
            <self>
              <href>/mdr/cdashig/2-1/domains/MH/fields/MHDIR</href>
              <title>Medical History Directionality</title>
              <type>Data Collection Field</type>
            </self>
          </_links>
          <core>O</core>
          <definition>Qualifier further detailing the position of the anatomical location relative to the center of the body, organ, or specimen.</definition>
          <label>Medical History Directionality</label>
          <name>MHDIR</name>
          <ordinal>20</ordinal>
          <questionText>What was the directionality of the anatomical location of the medical condition or event?</questionText>
          <simpleDatatype>Char</simpleDatatype>
        </field>
        <field>
          <_links>
            <self>
              <href>/mdr/cdashig/2-1/domains/MH/fields/MHPORTOT</href>
              <title>MH Event Location Portion or Totality</title>
              <type>Data Collection Field</type>
            </self>
          </_links>
          <core>O</core>
          <definition>Qualifier for anatomical location further detailing the distribution, which means arrangement of, apportioning of.</definition>
          <label>MH Event Location Portion or Totality</label>
          <name>MHPORTOT</name>
          <ordinal>21</ordinal>
          <questionText>What was the portion or totality of the anatomical location of the of the medical condition or event?</questionText>
          <simpleDatatype>Char</simpleDatatype>
        </field>
        <field>
          <_links>
            <self>
              <href>/mdr/cdashig/2-1/domains/MH/fields/MHMODIFY</href>
              <title>MH Modified Reported Term</title>
              <type>Data Collection Field</type>
            </self>
          </_links>
          <core>O</core>
          <definition>If the value for MHTERM is modified to facilitate coding, then MHMODIFY will contain the modified text.</definition>
          <label>MH Modified Reported Term</label>
          <name>MHMODIFY</name>
          <ordinal>22</ordinal>
          <simpleDatatype>Char</simpleDatatype>
        </field>
        <field>
          <_links>
            <self>
              <href>/mdr/cdashig/2-1/domains/MH/fields/MHDECOD</href>
              <title>MH Dictionary-Derived Term</title>
              <type>Data Collection Field</type>
            </self>
          </_links>
          <core>O</core>
          <definition>The dictionary text description of MHTERM or the modified topic variable (MH MODIFY), if applicable.</definition>
          <label>MH Dictionary-Derived Term</label>
          <name>MHDECOD</name>
          <ordinal>23</ordinal>
          <simpleDatatype>Char</simpleDatatype>
        </field>
        <field>
          <_links>
            <self>
              <href>/mdr/cdashig/2-1/domains/MH/fields/MHLLT</href>
              <title>Medical History Event Lowest Level Term</title>
              <type>Data Collection Field</type>
            </self>
          </_links>
          <core>O</core>
          <definition>MedDRA Dictionary text description of the Lowest Level Term.</definition>
          <label>Medical History Event Lowest Level Term</label>
          <name>MHLLT</name>
          <ordinal>24</ordinal>
          <simpleDatatype>Char</simpleDatatype>
        </field>
        <field>
          <_links>
            <self>
              <href>/mdr/cdashig/2-1/domains/MH/fields/MHLLTCD</href>
              <title>MH Event Lowest Level Term Code</title>
              <type>Data Collection Field</type>
            </self>
          </_links>
          <core>O</core>
          <definition>MedDRA Lowest Level Term code.</definition>
          <label>MH Event Lowest Level Term Code</label>
          <name>MHLLTCD</name>
          <ordinal>25</ordinal>
          <simpleDatatype>Num</simpleDatatype>
        </field>
        <field>
          <_links>
            <self>
              <href>/mdr/cdashig/2-1/domains/MH/fields/MHPTCD</href>
              <title>MH Event Preferred Term Code</title>
              <type>Data Collection Field</type>
            </self>
          </_links>
          <core>O</core>
          <definition>MedDRA code for the Preferred Term.</definition>
          <label>MH Event Preferred Term Code</label>
          <name>MHPTCD</name>
          <ordinal>26</ordinal>
          <simpleDatatype>Num</simpleDatatype>
        </field>
        <field>
          <_links>
            <self>
              <href>/mdr/cdashig/2-1/domains/MH/fields/MHHLT</href>
              <title>Medical History Event High Level Term</title>
              <type>Data Collection Field</type>
            </self>
          </_links>
          <core>O</core>
          <definition>MedDRA text description of the High Level Term from the primary path.</definition>
          <label>Medical History Event High Level Term</label>
          <name>MHHLT</name>
          <ordinal>27</ordinal>
          <simpleDatatype>Char</simpleDatatype>
        </field>
        <field>
          <_links>
            <self>
              <href>/mdr/cdashig/2-1/domains/MH/fields/MHHLTCD</href>
              <title>MH Event High Level Term Code</title>
              <type>Data Collection Field</type>
            </self>
          </_links>
          <core>O</core>
          <definition>MedDRA High Level Term code from the primary path.</definition>
          <label>MH Event High Level Term Code</label>
          <name>MHHLTCD</name>
          <ordinal>28</ordinal>
          <simpleDatatype>Num</simpleDatatype>
        </field>
        <field>
          <_links>
            <self>
              <href>/mdr/cdashig/2-1/domains/MH/fields/MHHLGT</href>
              <title>MH Event High Level Group Term</title>
              <type>Data Collection Field</type>
            </self>
          </_links>
          <core>O</core>
          <definition>MedDRA text description of the High Level Group Term from the primary path.</definition>
          <label>MH Event High Level Group Term</label>
          <name>MHHLGT</name>
          <ordinal>29</ordinal>
          <simpleDatatype>Char</simpleDatatype>
        </field>
        <field>
          <_links>
            <self>
              <href>/mdr/cdashig/2-1/domains/MH/fields/MHHLGTCD</href>
              <title>MH Event High Level Group Term Code</title>
              <type>Data Collection Field</type>
            </self>
          </_links>
          <core>O</core>
          <definition>MedDRA High Level Group Term code from the primary path.</definition>
          <label>MH Event High Level Group Term Code</label>
          <name>MHHLGTCD</name>
          <ordinal>30</ordinal>
          <simpleDatatype>Num</simpleDatatype>
        </field>
        <field>
          <_links>
            <self>
              <href>/mdr/cdashig/2-1/domains/MH/fields/MHSOC</href>
              <title>MH Event Primary System Organ Class</title>
              <type>Data Collection Field</type>
            </self>
          </_links>
          <core>O</core>
          <definition>MedDRA Primary System Organ Class description associated with the event.</definition>
          <label>MH Event Primary System Organ Class</label>
          <name>MHSOC</name>
          <ordinal>31</ordinal>
          <simpleDatatype>Char</simpleDatatype>
        </field>
        <field>
          <_links>
            <self>
              <href>/mdr/cdashig/2-1/domains/MH/fields/MHSOCCD</href>
              <title>MH Event Primary System Organ Class Code</title>
              <type>Data Collection Field</type>
            </self>
          </_links>
          <core>O</core>
          <definition>MedDRA code for the primary System Organ Class.</definition>
          <label>MH Event Primary System Organ Class Code</label>
          <name>MHSOCCD</name>
          <ordinal>32</ordinal>
          <simpleDatatype>Num</simpleDatatype>
        </field>
        <label>Medical History</label>
        <name>MH</name>
        <ordinal>18</ordinal>
      </domain>
      <label>Events</label>
      <name>Events</name>
      <ordinal>3</ordinal>
    </class>
    <class>
      <_links>
        <self>
          <href>/mdr/cdashig/2-1/classes/Findings</href>
          <title>Findings</title>
          <type>Class</type>
        </self>
      </_links>
      <description>The Findings class includes CDASH domains that define collection standards for results from evaluations such as physical examinations, laboratory tests, electrocardiogram (ECG) testing, and responses to questionnaires. (Source: CDASHIG v2.1, Section 8.3)</description>
      <domain>
        <_links>
          <self>
            <href>/mdr/cdashig/2-1/domains/LB</href>
            <title>Labs</title>
            <type>CDASH Domain</type>
          </self>
        </_links>
        <label>Labs</label>
        <name>LB</name>
        <ordinal>16</ordinal>
      </domain>
      <domain>
        <_links>
          <self>
            <href>/mdr/cdashig/2-1/domains/VS</href>
            <title>Vital Signs</title>
            <type>CDASH Domain</type>
          </self>
        </_links>
        <field>
          <_links>
            <self>
              <href>/mdr/cdashig/2-1/domains/VS/fields/STUDYID</href>
              <title>Study Identifier</title>
              <type>Data Collection Field</type>
            </self>
          </_links>
          <core>HR</core>
          <definition>A unique identifier for a study.</definition>
          <label>Study Identifier</label>
          <name>STUDYID</name>
          <ordinal>1</ordinal>
          <questionText>What is the study identifier?</questionText>
          <simpleDatatype>Char</simpleDatatype>
        </field>
        <field>
          <_links>
            <self>
              <href>/mdr/cdashig/2-1/domains/VS/fields/SITEID</href>
              <title>Study Site Identifier</title>
              <type>Data Collection Field</type>
            </self>
          </_links>
          <core>HR</core>
          <definition>A unique identifier for a site within a study.</definition>
          <label>Study Site Identifier</label>
          <name>SITEID</name>
          <ordinal>2</ordinal>
          <questionText>What is the site identifier?</questionText>
          <simpleDatatype>Char</simpleDatatype>
        </field>
        <field>
          <_links>
            <self>
              <href>/mdr/cdashig/2-1/domains/VS/fields/SUBJID</href>
              <title>Subject Identifier for the Study</title>
              <type>Data Collection Field</type>
            </self>
          </_links>
          <core>HR</core>
          <definition>A unique subject identifier within a site and a study.</definition>
          <label>Subject Identifier for the Study</label>
          <name>SUBJID</name>
          <ordinal>3</ordinal>
          <questionText>What is the subject identifier?</questionText>
          <simpleDatatype>Char</simpleDatatype>
        </field>
        <field>
          <_links>
            <self>
              <href>/mdr/cdashig/2-1/domains/VS/fields/VISIT</href>
              <title>Visit Name</title>
              <type>Data Collection Field</type>
            </self>
          </_links>
          <core>R/C</core>
          <definition>The name of a clinical encounter that encompasses planned and unplanned trial interventions, procedures, and assessments that may be performed on a subject.</definition>
          <label>Visit Name</label>
          <name>VISIT</name>
          <ordinal>4</ordinal>
          <questionText>What is the visit name?</questionText>
          <simpleDatatype>Char</simpleDatatype>
        </field>
        <field>
          <_links>
            <self>
              <href>/mdr/cdashig/2-1/domains/VS/fields/VISDAT</href>
              <title>Visit Date</title>
              <type>Data Collection Field</type>
            </self>
          </_links>
          <core>R/C</core>
          <definition>Date the clinical encounter occurred (or started).</definition>
          <label>Visit Date</label>
          <name>VISDAT</name>
          <ordinal>5</ordinal>
          <questionText>What [is/was] the date of the visit?</questionText>
          <simpleDatatype>Char</simpleDatatype>
        </field>
        <field>
          <_links>
            <self>
              <href>/mdr/cdashig/2-1/domains/VS/fields/VSPERF</href>
              <title>Vital Signs Performed</title>
              <type>Data Collection Field</type>
            </self>
          </_links>
          <core>O</core>
          <definition>An indication whether or not a planned vital signs measurement, series of vital signs measurements, tests, or observations was performed.</definition>
          <label>Vital Signs Performed</label>
          <name>VSPERF</name>
          <ordinal>6</ordinal>
          <questionText>Were vital signs performed?</questionText>
          <simpleDatatype>Char</simpleDatatype>
        </field>
        <field>
          <_links>
            <self>
              <href>/mdr/cdashig/2-1/domains/VS/fields/VSDAT</href>
              <title>Vital Signs Date</title>
              <type>Data Collection Field</type>
            </self>
          </_links>
          <core>R/C</core>
          <definition>The date of the vital signs measurement, represented in an unambiguous date format (e.g., DD-MON-YYYY).</definition>
          <label>Vital Signs Date</label>
          <name>VSDAT</name>
          <ordinal>7</ordinal>
          <questionText>What was the date of the vital signs measurement?</questionText>
          <simpleDatatype>Char</simpleDatatype>
        </field>
        <field>
          <_links>
            <self>
              <href>/mdr/cdashig/2-1/domains/VS/fields/VSTIM</href>
              <title>Vital Signs Time</title>
              <type>Data Collection Field</type>
            </self>
          </_links>
          <core>R/C</core>
          <definition>The time of measurement, represented in an unambiguous time format (e.g., hh:mm:ss).</definition>
          <label>Vital Signs Time</label>
          <name>VSTIM</name>
          <ordinal>8</ordinal>
          <questionText>What was the time of the vital signs measurement?</questionText>
          <simpleDatatype>Char</simpleDatatype>
        </field>
        <field>
          <_links>
            <self>
              <href>/mdr/cdashig/2-1/domains/VS/fields/VSSPID</href>
              <title>Vital Signs Sponsor-Defined Identifier</title>
              <type>Data Collection Field</type>
            </self>
          </_links>
          <core>O</core>
          <definition>A sponsor-defined identifier. In CDASH, This is typically used for preprinted or auto-generated numbers on the CRF, or any other type of identifier that does not already have a defined CDASH identifier field.</definition>
          <label>Vital Signs Sponsor-Defined Identifier</label>
          <name>VSSPID</name>
          <ordinal>9</ordinal>
          <questionText>[Sponsor-defined question]</questionText>
          <simpleDatatype>Char</simpleDatatype>
        </field>
        <field>
          <_links>
            <self>
              <href>/mdr/cdashig/2-1/domains/VS/fields/VSTPT</href>
              <title>Vital Signs Planned Time Point Name</title>
              <type>Data Collection Field</type>
            </self>
          </_links>
          <core>R/C</core>
          <definition>A text description of planned time point when measurements should be taken as defined in the protocol.</definition>
          <label>Vital Signs Planned Time Point Name</label>
          <name>VSTPT</name>
          <ordinal>10</ordinal>
          <questionText>What is the planned time point for this vital signs measurement?</questionText>
          <simpleDatatype>Char</simpleDatatype>
        </field>
        <field>
          <_links>
            <self>
              <href>/mdr/cdashig/2-1/domains/VS/fields/VSCAT</href>
              <title>Category for Vital Signs</title>
              <type>Data Collection Field</type>
            </self>
          </_links>
          <core>O</core>
          <definition>A grouping of topic-variable values based on user-defined characteristics.</definition>
          <label>Category for Vital Signs</label>
          <name>VSCAT</name>
          <ordinal>11</ordinal>
          <questionText>What was the category of the vital signs?</questionText>
          <simpleDatatype>Char</simpleDatatype>
        </field>
        <field>
          <_links>
            <self>
              <href>/mdr/cdashig/2-1/domains/VS/fields/VSSCAT</href>
              <title>Subcategory for Vital Signs</title>
              <type>Data Collection Field</type>
            </self>
          </_links>
          <core>O</core>
          <definition>A sub-division of the VSCAT values based on user-defined characteristics.</definition>
          <label>Subcategory for Vital Signs</label>
          <name>VSSCAT</name>
          <ordinal>12</ordinal>
          <questionText>What was the subcategory of the vital signs?</questionText>
          <simpleDatatype>Char</simpleDatatype>
        </field>
        <field>
          <_links>
            <self>
              <href>/mdr/cdashig/2-1/domains/VS/fields/VSREPNUM</href>
              <title>Vital Signs Repetition Number</title>
              <type>Data Collection Field</type>
            </self>
          </_links>
          <core>O</core>
          <definition>The instance number of a test that is repeated within a given timeframe for the same test. The level of granularity can vary (e.g., within a time point, within a visit).</definition>
          <label>Vital Signs Repetition Number</label>
          <name>VSREPNUM</name>
          <ordinal>13</ordinal>
          <questionText>What was the repetition number within the time point for this measurement?</questionText>
          <simpleDatatype>Char</simpleDatatype>
        </field>
        <field>
          <_links>
            <self>
              <href>/mdr/cdashig/2-1/domains/VS/fields/VSTEST</href>
              <title>Vital Signs Test Name</title>
              <type>Data Collection Field</type>
            </self>
          </_links>
          <core>HR</core>
          <definition>Descriptive name of the test or examination used to obtain the measurement or finding.</definition>
          <label>Vital Signs Test Name</label>
          <name>VSTEST</name>
          <ordinal>14</ordinal>
          <questionText>What is the vital sign test name?</questionText>
          <simpleDatatype>Char</simpleDatatype>
        </field>
        <field>
          <_links>
            <self>
              <href>/mdr/cdashig/2-1/domains/VS/fields/VSSTAT</href>
              <title>Vital Signs Completion Status</title>
              <type>Data Collection Field</type>
            </self>
          </_links>
          <core>O</core>
          <definition>The variable used to indicate that data are not available by having the site recording the value as "Not Done".</definition>
          <label>Vital Signs Completion Status</label>
          <name>VSSTAT</name>
          <ordinal>15</ordinal>
          <questionText>Indicate if the vital signs measurement was not done</questionText>
          <simpleDatatype>Char</simpleDatatype>
        </field>
        <field>
          <_links>
            <self>
              <href>/mdr/cdashig/2-1/domains/VS/fields/VSORRES</href>
              <title>VS Result or Finding in Original Units</title>
              <type>Data Collection Field</type>
            </self>
          </_links>
          <core>HR</core>
          <definition>Result of the vital signs measurement as originally received or collected.</definition>
          <label>VS Result or Finding in Original Units</label>
          <name>VSORRES</name>
          <ordinal>16</ordinal>
          <questionText>What was the result of the measurement?</questionText>
          <simpleDatatype>Char</simpleDatatype>
        </field>
        <field>
          <_links>
            <self>
              <href>/mdr/cdashig/2-1/domains/VS/fields/VSORRESU</href>
              <title>VS Original Units</title>
              <type>Data Collection Field</type>
            </self>
          </_links>
          <core>R/C</core>
          <definition>The unit of the result as originally received or collected.</definition>
          <label>VS Original Units</label>
          <name>VSORRESU</name>
          <ordinal>17</ordinal>
          <questionText>What was the unit of the measurement?</questionText>
          <simpleDatatype>Char</simpleDatatype>
        </field>
        <field>
          <_links>
            <self>
              <href>/mdr/cdashig/2-1/domains/VS/fields/VSCLSIG</href>
              <title>Vital Signs Clinical Significance</title>
              <type>Data Collection Field</type>
            </self>
          </_links>
          <core>O</core>
          <definition>An indication whether the vital sign result was clinically significant.</definition>
          <label>Vital Signs Clinical Significance</label>
          <name>VSCLSIG</name>
          <ordinal>18</ordinal>
          <questionText>Was the result clinically significant?</questionText>
          <simpleDatatype>Char</simpleDatatype>
        </field>
        <field>
          <_links>
            <self>
              <href>/mdr/cdashig/2-1/domains/VS/fields/VSLOC</href>
              <title>Location of Vital Signs Measurement</title>
              <type>Data Collection Field</type>
            </self>
          </_links>
          <core>O</core>
          <definition>A description of the anatomical location of the subject relevant to the collection of Vital Signs measurement.</definition>
          <label>Location of Vital Signs Measurement</label>
          <name>VSLOC</name>
          <ordinal>19</ordinal>
          <questionText>What was the anatomical location where the measurement was taken?</questionText>
          <simpleDatatype>Char</simpleDatatype>
        </field>
        <field>
          <_links>
            <self>
              <href>/mdr/cdashig/2-1/domains/VS/fields/VSPOS</href>
              <title>Vital Signs Position of Subject</title>
              <type>Data Collection Field</type>
            </self>
          </_links>
          <core>R/C</core>
          <definition>The position of the subject during a measurement or examination.</definition>
          <label>Vital Signs Position of Subject</label>
          <name>VSPOS</name>
          <ordinal>20</ordinal>
          <questionText>What was the position of the subject during the measurement?</questionText>
          <simpleDatatype>Char</simpleDatatype>
        </field>
        <field>
          <_links>
            <self>
              <href>/mdr/cdashig/2-1/domains/VS/fields/VSDIR</href>
              <title>Vital Signs Directionality</title>
              <type>Data Collection Field</type>
            </self>
          </_links>
          <core>O</core>
          <definition>Qualifier further detailing the position of the anatomical location relative to the center of the body, organ, or specimen.</definition>
          <label>Vital Signs Directionality</label>
          <name>VSDIR</name>
          <ordinal>21</ordinal>
          <questionText>What was the directionality of the anatomical location of the measurement?</questionText>
          <simpleDatatype>Char</simpleDatatype>
        </field>
        <field>
          <_links>
            <self>
              <href>/mdr/cdashig/2-1/domains/VS/fields/VSLAT</href>
              <title>Vital Signs Laterality</title>
              <type>Data Collection Field</type>
            </self>
          </_links>
          <core>O</core>
          <definition>Qualifier for anatomical location further detailing the side of the body.</definition>
          <label>Vital Signs Laterality</label>
          <name>VSLAT</name>
          <ordinal>22</ordinal>
          <questionText>What was the side of the anatomical location of the vital signs measurement?</questionText>
          <simpleDatatype>Char</simpleDatatype>
        </field>
        <label>Vital Signs</label>
        <name>VS</name>
        <ordinal>31</ordinal>
      </domain>
      <label>Findings</label>
      <name>Findings</name>
      <ordinal>4</ordinal>
      <scenario>
        <_links>
          <self>
            <href>/mdr/cdashig/2-1/scenarios/LB.CentralProcessing</href>
            <title>Central Processing</title>
            <type>CDASH Scenario</type>
          </self>
        </_links>
        <domain>Labs</domain>
        <field>
          <_links>
            <self>
              <href>/mdr/cdashig/2-1/scenarios/LB.CentralProcessing/fields/STUDYID</href>
              <title>Study Identifier</title>
              <type>Data Collection Field</type>
            </self>
          </_links>
          <core>HR</core>
          <definition>A unique identifier for a study.</definition>
          <label>Study Identifier</label>
          <name>STUDYID</name>
          <ordinal>1</ordinal>
          <questionText>What is the study identifier?</questionText>
          <simpleDatatype>Char</simpleDatatype>
        </field>
        <field>
          <_links>
            <self>
              <href>/mdr/cdashig/2-1/scenarios/LB.CentralProcessing/fields/SITEID</href>
              <title>Study Site Identifier</title>
              <type>Data Collection Field</type>
            </self>
          </_links>
          <core>HR</core>
          <definition>A unique identifier for a site within a study.</definition>
          <label>Study Site Identifier</label>
          <name>SITEID</name>
          <ordinal>2</ordinal>
          <questionText>What is the site identifier?</questionText>
          <simpleDatatype>Char</simpleDatatype>
        </field>
        <field>
          <_links>
            <self>
              <href>/mdr/cdashig/2-1/scenarios/LB.CentralProcessing/fields/SUBJID</href>
              <title>Subject Identifier for the Study</title>
              <type>Data Collection Field</type>
            </self>
          </_links>
          <core>HR</core>
          <definition>A unique subject identifier within a site and a study.</definition>
          <label>Subject Identifier for the Study</label>
          <name>SUBJID</name>
          <ordinal>3</ordinal>
          <questionText>What [is/was] the (study) [subject/participant] identifier?</questionText>
          <simpleDatatype>Char</simpleDatatype>
        </field>
        <field>
          <_links>
            <self>
              <href>/mdr/cdashig/2-1/scenarios/LB.CentralProcessing/fields/VISIT</href>
              <title>Visit Name</title>
              <type>Data Collection Field</type>
            </self>
          </_links>
          <core>R/C</core>
          <definition>The name of a clinical encounter that encompasses planned and unplanned trial interventions, procedures, and assessments that may be performed on a subject.</definition>
          <label>Visit Name</label>
          <name>VISIT</name>
          <ordinal>4</ordinal>
          <questionText>What is the visit name?</questionText>
          <simpleDatatype>Char</simpleDatatype>
        </field>
        <field>
          <_links>
            <self>
              <href>/mdr/cdashig/2-1/scenarios/LB.CentralProcessing/fields/VISDAT</href>
              <title>Visit Date</title>
              <type>Data Collection Field</type>
            </self>
          </_links>
          <core>R/C</core>
          <definition>Date the clinical encounter occurred (or started).</definition>
          <label>Visit Date</label>
          <name>VISDAT</name>
          <ordinal>5</ordinal>
          <questionText>What [is/was] the date of the visit?</questionText>
          <simpleDatatype>Char</simpleDatatype>
        </field>
        <field>
          <_links>
            <self>
              <href>/mdr/cdashig/2-1/scenarios/LB.CentralProcessing/fields/LBPERF</href>
              <title>Lab Performed</title>
              <type>Data Collection Field</type>
            </self>
          </_links>
          <core>HR</core>
          <definition>An indication of whether or not a planned lab measurement, series of lab measurements, tests, observations or was performed or specimens collected.</definition>
          <label>Lab Performed</label>
          <name>LBPERF</name>
          <ordinal>6</ordinal>
          <questionText>Was the sample collected?; Was the lab performed?</questionText>
          <simpleDatatype>Char</simpleDatatype>
        </field>
        <field>
          <_links>
            <self>
              <href>/mdr/cdashig/2-1/scenarios/LB.CentralProcessing/fields/LBDAT</href>
              <title>Specimen Collection Date</title>
              <type>Data Collection Field</type>
            </self>
          </_links>
          <core>R/C</core>
          <definition>The date of specimen collection, represented in an unambiguous date format (e.g., DD-MON-YYYY).</definition>
          <label>Specimen Collection Date</label>
          <name>LBDAT</name>
          <ordinal>7</ordinal>
          <questionText>What was the date of the lab specimen collection?</questionText>
          <simpleDatatype>Char</simpleDatatype>
        </field>
        <field>
          <_links>
            <self>
              <href>/mdr/cdashig/2-1/scenarios/LB.CentralProcessing/fields/LBTIM</href>
              <title>Specimen Collection Time</title>
              <type>Data Collection Field</type>
            </self>
          </_links>
          <core>R/C</core>
          <definition>The time of specimen collection, represented in an unambiguous time format (e.g., hh:mm:ss).</definition>
          <label>Specimen Collection Time</label>
          <name>LBTIM</name>
          <ordinal>8</ordinal>
          <questionText>What was the (start) time of the lab specimen collection?</questionText>
          <simpleDatatype>Char</simpleDatatype>
        </field>
        <field>
          <_links>
            <self>
              <href>/mdr/cdashig/2-1/scenarios/LB.CentralProcessing/fields/LBCAT</href>
              <title>Category for Lab Test</title>
              <type>Data Collection Field</type>
            </self>
          </_links>
          <core>R/C</core>
          <definition>A grouping of topic-variable values based on user-defined characteristics.</definition>
          <label>Category for Lab Test</label>
          <name>LBCAT</name>
          <ordinal>9</ordinal>
          <questionText>What was the name of the lab panel?</questionText>
          <simpleDatatype>Char</simpleDatatype>
        </field>
        <field>
          <_links>
            <self>
              <href>/mdr/cdashig/2-1/scenarios/LB.CentralProcessing/fields/LBSCAT</href>
              <title>Subcategory for Lab Test</title>
              <type>Data Collection Field</type>
            </self>
          </_links>
          <core>R/C</core>
          <definition>A sub-division of the LBCAT values based on user-defined characteristics.</definition>
          <label>Subcategory for Lab Test</label>
          <name>LBSCAT</name>
          <ordinal>10</ordinal>
          <questionText>What was the name of the lab sub-panel?</questionText>
          <simpleDatatype>Char</simpleDatatype>
        </field>
        <field>
          <_links>
            <self>
              <href>/mdr/cdashig/2-1/scenarios/LB.CentralProcessing/fields/LBTPT</href>
              <title>Lab Planned Time Point Name</title>
              <type>Data Collection Field</type>
            </self>
          </_links>
          <core>R/C</core>
          <definition>A text description of planned time point when measurements should be taken as defined in the protocol.</definition>
          <label>Lab Planned Time Point Name</label>
          <name>LBTPT</name>
          <ordinal>11</ordinal>
          <questionText>What was the planned time point of the lab?</questionText>
          <simpleDatatype>Char</simpleDatatype>
        </field>
        <field>
          <_links>
            <self>
              <href>/mdr/cdashig/2-1/scenarios/LB.CentralProcessing/fields/LBCOND</href>
              <title>Lab Test Condition Met</title>
              <type>Data Collection Field</type>
            </self>
          </_links>
          <core>R/C</core>
          <definition>Indication whether the testing condition defined in the protocol were met (e.g., Low fat diet).</definition>
          <label>Lab Test Condition Met</label>
          <name>LBCOND</name>
          <ordinal>12</ordinal>
          <questionText>Were the protocol-defined testing conditions met?</questionText>
          <simpleDatatype>Char</simpleDatatype>
        </field>
        <field>
          <_links>
            <self>
              <href>/mdr/cdashig/2-1/scenarios/LB.CentralProcessing/fields/LBFAST</href>
              <title>Lab Fasting Status</title>
              <type>Data Collection Field</type>
            </self>
          </_links>
          <core>R/C</core>
          <definition>An indication that the subject has abstained from food/water for the specified amount of time.</definition>
          <label>Lab Fasting Status</label>
          <name>LBFAST</name>
          <ordinal>13</ordinal>
          <questionText>Was the subject fasting?</questionText>
          <simpleDatatype>Char</simpleDatatype>
        </field>
        <field>
          <_links>
            <self>
              <href>/mdr/cdashig/2-1/scenarios/LB.CentralProcessing/fields/LBREFID</href>
              <title>Lab Specimen ID</title>
              <type>Data Collection Field</type>
            </self>
          </_links>
          <core>R/C</core>
          <definition>An internal or external identifier such as specimen identifier.</definition>
          <label>Lab Specimen ID</label>
          <name>LBREFID</name>
          <ordinal>14</ordinal>
          <questionText>What was the (laboratory test) [reference identifier/accession number]?</questionText>
          <simpleDatatype>Char</simpleDatatype>
        </field>
        <ordinal>6</ordinal>
        <scenario>Central Processing</scenario>
      </scenario>
      <scenario>
        <_links>
          <self>
            <href>/mdr/cdashig/2-1/scenarios/LB.CentralProcessingCS</href>
            <title>Central Processing with CS</title>
            <type>CDASH Scenario</type>
          </self>
        </_links>
        <domain>Labs</domain>
        <field>
          <_links>
            <self>
              <href>/mdr/cdashig/2-1/scenarios/LB.CentralProcessingCS/fields/STUDYID</href>
              <title>Study Identifier</title>
              <type>Data Collection Field</type>
            </self>
          </_links>
          <core>HR</core>
          <definition>A unique identifier for a study.</definition>
          <label>Study Identifier</label>
          <name>STUDYID</name>
          <ordinal>1</ordinal>
          <questionText>What is the study identifier?</questionText>
          <simpleDatatype>Char</simpleDatatype>
        </field>
        <field>
          <_links>
            <self>
              <href>/mdr/cdashig/2-1/scenarios/LB.CentralProcessingCS/fields/SITEID</href>
              <title>Study Site Identifier</title>
              <type>Data Collection Field</type>
            </self>
          </_links>
          <core>HR</core>
          <definition>A unique identifier for a site within a study.</definition>
          <label>Study Site Identifier</label>
          <name>SITEID</name>
          <ordinal>2</ordinal>
          <questionText>What is the site identifier?</questionText>
          <simpleDatatype>Char</simpleDatatype>
        </field>
        <field>
          <_links>
            <self>
              <href>/mdr/cdashig/2-1/scenarios/LB.CentralProcessingCS/fields/SUBJID</href>
              <title>Subject Identifier for the Study</title>
              <type>Data Collection Field</type>
            </self>
          </_links>
          <core>HR</core>
          <definition>A unique subject identifier within a site and a study.</definition>
          <label>Subject Identifier for the Study</label>
          <name>SUBJID</name>
          <ordinal>3</ordinal>
          <questionText>What [is/was] the (study) [subject/participant] identifier?</questionText>
          <simpleDatatype>Char</simpleDatatype>
        </field>
        <field>
          <_links>
            <self>
              <href>/mdr/cdashig/2-1/scenarios/LB.CentralProcessingCS/fields/VISIT</href>
              <title>Visit Name</title>
              <type>Data Collection Field</type>
            </self>
          </_links>
          <core>R/C</core>
          <definition>The name of a clinical encounter that encompasses planned and unplanned trial interventions, procedures, and assessments that may be performed on a subject.</definition>
          <label>Visit Name</label>
          <name>VISIT</name>
          <ordinal>4</ordinal>
          <questionText>What is the visit name?</questionText>
          <simpleDatatype>Char</simpleDatatype>
        </field>
        <field>
          <_links>
            <self>
              <href>/mdr/cdashig/2-1/scenarios/LB.CentralProcessingCS/fields/VISDAT</href>
              <title>Visit Date</title>
              <type>Data Collection Field</type>
            </self>
          </_links>
          <core>R/C</core>
          <definition>Date the clinical encounter occurred (or started).</definition>
          <label>Visit Date</label>
          <name>VISDAT</name>
          <ordinal>5</ordinal>
          <questionText>What [is/was] the date of the visit?</questionText>
          <simpleDatatype>Char</simpleDatatype>
        </field>
        <field>
          <_links>
            <self>
              <href>/mdr/cdashig/2-1/scenarios/LB.CentralProcessingCS/fields/LBPERF</href>
              <title>Lab Performed</title>
              <type>Data Collection Field</type>
            </self>
          </_links>
          <core>HR</core>
          <definition>An indication of whether or not a planned lab measurement, series of lab measurements, test, or observation was performed or specimens collected.</definition>
          <label>Lab Performed</label>
          <name>LBPERF</name>
          <ordinal>6</ordinal>
          <questionText>Was the sample collected?; Was the lab performed?</questionText>
          <simpleDatatype>Char</simpleDatatype>
        </field>
        <field>
          <_links>
            <self>
              <href>/mdr/cdashig/2-1/scenarios/LB.CentralProcessingCS/fields/LBDAT</href>
              <title>Specimen Collection Date</title>
              <type>Data Collection Field</type>
            </self>
          </_links>
          <core>R/C</core>
          <definition>The date of specimen collection, represented in an unambiguous date format (e.g., DD-MON-YYYY).</definition>
          <label>Specimen Collection Date</label>
          <name>LBDAT</name>
          <ordinal>7</ordinal>
          <questionText>What was the date of the lab specimen collection</questionText>
          <simpleDatatype>Char</simpleDatatype>
        </field>
        <field>
          <_links>
            <self>
              <href>/mdr/cdashig/2-1/scenarios/LB.CentralProcessingCS/fields/LBTIM</href>
              <title>Specimen Collection Time</title>
              <type>Data Collection Field</type>
            </self>
          </_links>
          <core>R/C</core>
          <definition>The time of specimen collection, represented in an unambiguous time format (e.g., hh:mm:ss).</definition>
          <label>Specimen Collection Time</label>
          <name>LBTIM</name>
          <ordinal>8</ordinal>
          <questionText>What was the (start) time of the lab specimen collection?</questionText>
          <simpleDatatype>Char</simpleDatatype>
        </field>
        <field>
          <_links>
            <self>
              <href>/mdr/cdashig/2-1/scenarios/LB.CentralProcessingCS/fields/LBCAT</href>
              <title>Category for Lab Test</title>
              <type>Data Collection Field</type>
            </self>
          </_links>
          <core>R/C</core>
          <definition>A grouping of topic-variable values based on user-defined characteristics.</definition>
          <label>Category for Lab Test</label>
          <name>LBCAT</name>
          <ordinal>9</ordinal>
          <questionText>What was the name of the lab panel?</questionText>
          <simpleDatatype>Char</simpleDatatype>
        </field>
        <field>
          <_links>
            <self>
              <href>/mdr/cdashig/2-1/scenarios/LB.CentralProcessingCS/fields/LBSCAT</href>
              <title>Subcategory for Lab Test</title>
              <type>Data Collection Field</type>
            </self>
          </_links>
          <core>R/C</core>
          <definition>A sub-division of the LBCAT values based on user-defined characteristics.</definition>
          <label>Subcategory for Lab Test</label>
          <name>LBSCAT</name>
          <ordinal>10</ordinal>
          <questionText>What was the name of the lab sub-panel?</questionText>
          <simpleDatatype>Char</simpleDatatype>
        </field>
        <field>
          <_links>
            <self>
              <href>/mdr/cdashig/2-1/scenarios/LB.CentralProcessingCS/fields/LBTPT</href>
              <title>Lab Planned Time Point Name</title>
              <type>Data Collection Field</type>
            </self>
          </_links>
          <core>R/C</core>
          <definition>A text description of planned time point when measurements should be taken as defined in the protocol.</definition>
          <label>Lab Planned Time Point Name</label>
          <name>LBTPT</name>
          <ordinal>11</ordinal>
          <questionText>What was the planned time point of the lab?</questionText>
          <simpleDatatype>Char</simpleDatatype>
        </field>
        <field>
          <_links>
            <self>
              <href>/mdr/cdashig/2-1/scenarios/LB.CentralProcessingCS/fields/LBCOND</href>
              <title>Lab Test Condition Met</title>
              <type>Data Collection Field</type>
            </self>
          </_links>
          <core>O</core>
          <definition>Indication whether the testing condition defined in the protocol were met (e.g., Low fat diet).</definition>
          <label>Lab Test Condition Met</label>
          <name>LBCOND</name>
          <ordinal>12</ordinal>
          <questionText>Were the protocol-defined testing conditions met?</questionText>
          <simpleDatatype>Char</simpleDatatype>
        </field>
        <field>
          <_links>
            <self>
              <href>/mdr/cdashig/2-1/scenarios/LB.CentralProcessingCS/fields/LBFAST</href>
              <title>Lab Fasting Status</title>
              <type>Data Collection Field</type>
            </self>
          </_links>
          <core>R/C</core>
          <definition>An indication that the subject has abstained from food/water for the specified amount of time.</definition>
          <label>Lab Fasting Status</label>
          <name>LBFAST</name>
          <ordinal>13</ordinal>
          <questionText>Was the subject fasting?</questionText>
          <simpleDatatype>Char</simpleDatatype>
        </field>
        <field>
          <_links>
            <self>
              <href>/mdr/cdashig/2-1/scenarios/LB.CentralProcessingCS/fields/LBTEST</href>
              <title>Lab Test or Examination Name</title>
              <type>Data Collection Field</type>
            </self>
          </_links>
          <core>HR</core>
          <definition>Descriptive name of the lab test or examination used to obtain the measurement or finding. Any test normally performed by a clinical laboratory is considered a lab test.</definition>
          <label>Lab Test or Examination Name</label>
          <name>LBTEST</name>
          <ordinal>14</ordinal>
          <questionText>What was the lab test name?</questionText>
          <simpleDatatype>Char</simpleDatatype>
        </field>
        <field>
          <_links>
            <self>
              <href>/mdr/cdashig/2-1/scenarios/LB.CentralProcessingCS/fields/LBORRES</href>
              <title>Lab Result or Finding in Original Units</title>
              <type>Data Collection Field</type>
            </self>
          </_links>
          <core>HR</core>
          <definition>Result of the measurement or finding as originally received or collected.</definition>
          <label>Lab Result or Finding in Original Units</label>
          <name>LBORRES</name>
          <ordinal>15</ordinal>
          <questionText>What was the result of the lab test?</questionText>
          <simpleDatatype>Char</simpleDatatype>
        </field>
        <field>
          <_links>
            <self>
              <href>/mdr/cdashig/2-1/scenarios/LB.CentralProcessingCS/fields/LBORRESU</href>
              <title>Lab Original Units</title>
              <type>Data Collection Field</type>
            </self>
          </_links>
          <core>O</core>
          <definition>The unit of the result as originally received or collected.</definition>
          <label>Lab Original Units</label>
          <name>LBORRESU</name>
          <ordinal>16</ordinal>
          <questionText>What was the unit of the lab result?</questionText>
          <simpleDatatype>Char</simpleDatatype>
        </field>
        <field>
          <_links>
            <self>
              <href>/mdr/cdashig/2-1/scenarios/LB.CentralProcessingCS/fields/LBCLSIG</href>
              <title>Lab Clinical Significance</title>
              <type>Data Collection Field</type>
            </self>
          </_links>
          <core>HR</core>
          <definition>An indication whether lab test results were clinically significant.</definition>
          <label>Lab Clinical Significance</label>
          <name>LBCLSIG</name>
          <ordinal>17</ordinal>
          <questionText>Was this result clinically significant?</questionText>
          <simpleDatatype>Char</simpleDatatype>
        </field>
        <field>
          <_links>
            <self>
              <href>/mdr/cdashig/2-1/scenarios/LB.CentralProcessingCS/fields/LBREFID</href>
              <title>Lab Specimen ID</title>
              <type>Data Collection Field</type>
            </self>
          </_links>
          <core>R/C</core>
          <definition>An internal or external identifier (e.g., specimen identifier).</definition>
          <label>Lab Specimen ID</label>
          <name>LBREFID</name>
          <ordinal>18</ordinal>
          <questionText>What was the (laboratory test) [reference identifier/accession number]?</questionText>
          <simpleDatatype>Char</simpleDatatype>
        </field>
        <field>
          <_links>
            <self>
              <href>/mdr/cdashig/2-1/scenarios/LB.CentralProcessingCS/fields/LBMETHOD</href>
              <title>Lab Method of Test or Examination</title>
              <type>Data Collection Field</type>
            </self>
          </_links>
          <core>O</core>
          <definition>Method of the test or examination.</definition>
          <label>Lab Method of Test or Examination</label>
          <name>LBMETHOD</name>
          <ordinal>19</ordinal>
          <questionText>What was the method used for the lab test or examination?</questionText>
          <simpleDatatype>Char</simpleDatatype>
        </field>
        <ordinal>7</ordinal>
        <scenario>Central Processing with CS</scenario>
      </scenario>
      <scenario>
        <_links>
          <self>
            <href>/mdr/cdashig/2-1/scenarios/LB.LocalProcessing</href>
            <title>Local Processing</title>
            <type>CDASH Scenario</type>
          </self>
        </_links>
        <domain>Labs</domain>
        <field>
          <_links>
            <self>
              <href>/mdr/cdashig/2-1/scenarios/LB.LocalProcessing/fields/STUDYID</href>
              <title>Study Identifier</title>
              <type>Data Collection Field</type>
            </self>
          </_links>
          <core>HR</core>
          <definition>A unique identifier for a study.</definition>
          <label>Study Identifier</label>
          <name>STUDYID</name>
          <ordinal>1</ordinal>
          <questionText>What is the study identifier?</questionText>
          <simpleDatatype>Char</simpleDatatype>
        </field>
        <field>
          <_links>
            <self>
              <href>/mdr/cdashig/2-1/scenarios/LB.LocalProcessing/fields/SITEID</href>
              <title>Study Site Identifier</title>
              <type>Data Collection Field</type>
            </self>
          </_links>
          <core>HR</core>
          <definition>A unique identifier for a site within a study.</definition>
          <label>Study Site Identifier</label>
          <name>SITEID</name>
          <ordinal>2</ordinal>
          <questionText>What is the site identifier?</questionText>
          <simpleDatatype>Char</simpleDatatype>
        </field>
        <field>
          <_links>
            <self>
              <href>/mdr/cdashig/2-1/scenarios/LB.LocalProcessing/fields/SUBJID</href>
              <title>Subject Identifier for the Study</title>
              <type>Data Collection Field</type>
            </self>
          </_links>
          <core>HR</core>
          <definition>A unique subject identifier within a site and a study.</definition>
          <label>Subject Identifier for the Study</label>
          <name>SUBJID</name>
          <ordinal>3</ordinal>
          <questionText>What [is/was] the (study) [subject/participant] identifier?</questionText>
          <simpleDatatype>Char</simpleDatatype>
        </field>
        <field>
          <_links>
            <self>
              <href>/mdr/cdashig/2-1/scenarios/LB.LocalProcessing/fields/VISIT</href>
              <title>Visit Name</title>
              <type>Data Collection Field</type>
            </self>
          </_links>
          <core>R/C</core>
          <definition>The name of a clinical encounter that encompasses planned and unplanned trial interventions, procedures, and assessments that may be performed on a subject.</definition>
          <label>Visit Name</label>
          <name>VISIT</name>
          <ordinal>4</ordinal>
          <questionText>What is the visit name?</questionText>
          <simpleDatatype>Char</simpleDatatype>
        </field>
        <field>
          <_links>
            <self>
              <href>/mdr/cdashig/2-1/scenarios/LB.LocalProcessing/fields/VISDAT</href>
              <title>Visit Date</title>
              <type>Data Collection Field</type>
            </self>
          </_links>
          <core>R/C</core>
          <definition>Date the clinical encounter occurred (or started).</definition>
          <label>Visit Date</label>
          <name>VISDAT</name>
          <ordinal>5</ordinal>
          <questionText>What [is/was] the date of the visit?</questionText>
          <simpleDatatype>Char</simpleDatatype>
        </field>
        <field>
          <_links>
            <self>
              <href>/mdr/cdashig/2-1/scenarios/LB.LocalProcessing/fields/LBPERF</href>
              <title>Lab Performed</title>
              <type>Data Collection Field</type>
            </self>
          </_links>
          <core>HR</core>
          <definition>An indication of whether or not a planned lab measurement, series of lab measurements, test, or observation was performed or specimens collected.</definition>
          <label>Lab Performed</label>
          <name>LBPERF</name>
          <ordinal>6</ordinal>
          <questionText>Was the sample collected?; Was the lab performed?</questionText>
          <simpleDatatype>Char</simpleDatatype>
        </field>
        <field>
          <_links>
            <self>
              <href>/mdr/cdashig/2-1/scenarios/LB.LocalProcessing/fields/LBDAT</href>
              <title>Specimen Collection Date</title>
              <type>Data Collection Field</type>
            </self>
          </_links>
          <core>R/C</core>
          <definition>The date of specimen collection, represented in an unambiguous date format (e.g., DD-MON-YYYY).</definition>
          <label>Specimen Collection Date</label>
          <name>LBDAT</name>
          <ordinal>7</ordinal>
          <questionText>What was the date of the lab specimen collection?</questionText>
          <simpleDatatype>Char</simpleDatatype>
        </field>
        <field>
          <_links>
            <self>
              <href>/mdr/cdashig/2-1/scenarios/LB.LocalProcessing/fields/LBTIM</href>
              <title>Specimen Collection Time</title>
              <type>Data Collection Field</type>
            </self>
          </_links>
          <core>R/C</core>
          <definition>The time of specimen collection, represented in an unambiguous time format (e.g., hh:mm:ss).</definition>
          <label>Specimen Collection Time</label>
          <name>LBTIM</name>
          <ordinal>8</ordinal>
          <questionText>What was the (start) time of the lab specimen collection?</questionText>
          <simpleDatatype>Char</simpleDatatype>
        </field>
        <field>
          <_links>
            <self>
              <href>/mdr/cdashig/2-1/scenarios/LB.LocalProcessing/fields/LBCAT</href>
              <title>Category for Lab Test</title>
              <type>Data Collection Field</type>
            </self>
          </_links>
          <core>R/C</core>
          <definition>A grouping of topic-variable values based on user-defined characteristics.</definition>
          <label>Category for Lab Test</label>
          <name>LBCAT</name>
          <ordinal>9</ordinal>
          <questionText>What was the name of the lab panel?</questionText>
          <simpleDatatype>Char</simpleDatatype>
        </field>
        <field>
          <_links>
            <self>
              <href>/mdr/cdashig/2-1/scenarios/LB.LocalProcessing/fields/LBSCAT</href>
              <title>Subcategory for Lab Test</title>
              <type>Data Collection Field</type>
            </self>
          </_links>
          <core>R/C</core>
          <definition>A sub-division of the LBCAT values based on user defined characteristics.</definition>
          <label>Subcategory for Lab Test</label>
          <name>LBSCAT</name>
          <ordinal>10</ordinal>
          <questionText>What was the name of the lab sub-panel?</questionText>
          <simpleDatatype>Char</simpleDatatype>
        </field>
        <field>
          <_links>
            <self>
              <href>/mdr/cdashig/2-1/scenarios/LB.LocalProcessing/fields/LBTPT</href>
              <title>Lab Planned Time Point Name</title>
              <type>Data Collection Field</type>
            </self>
          </_links>
          <core>R/C</core>
          <definition>A text description of planned time point when measurements should be taken as defined in the protocol.</definition>
          <label>Lab Planned Time Point Name</label>
          <name>LBTPT</name>
          <ordinal>11</ordinal>
          <questionText>What was the planned time point of the lab?</questionText>
          <simpleDatatype>Char</simpleDatatype>
        </field>
        <field>
          <_links>
            <self>
              <href>/mdr/cdashig/2-1/scenarios/LB.LocalProcessing/fields/LBFAST</href>
              <title>Lab Fasting Status</title>
              <type>Data Collection Field</type>
            </self>
          </_links>
          <core>R/C</core>
          <definition>An indication that the subject has abstained from food/water for the specified amount of time.</definition>
          <label>Lab Fasting Status</label>
          <name>LBFAST</name>
          <ordinal>12</ordinal>
          <questionText>Was the subject fasting?</questionText>
          <simpleDatatype>Char</simpleDatatype>
        </field>
        <field>
          <_links>
            <self>
              <href>/mdr/cdashig/2-1/scenarios/LB.LocalProcessing/fields/LBCOND</href>
              <title>Lab Test Condition Met</title>
              <type>Data Collection Field</type>
            </self>
          </_links>
          <core>R/C</core>
          <definition>Indication whether the testing condition defined in the protocol were met (e.g., Low fat diet).</definition>
          <label>Lab Test Condition Met</label>
          <name>LBCOND</name>
          <ordinal>13</ordinal>
          <questionText>Were the protocol-defined testing conditions met?</questionText>
          <simpleDatatype>Char</simpleDatatype>
        </field>
        <field>
          <_links>
            <self>
              <href>/mdr/cdashig/2-1/scenarios/LB.LocalProcessing/fields/LBSPCCND</href>
              <title>Lab Specimen Condition</title>
              <type>Data Collection Field</type>
            </self>
          </_links>
          <core>O</core>
          <definition>Description of the condition of the specimen.</definition>
          <label>Lab Specimen Condition</label>
          <name>LBSPCCND</name>
          <ordinal>14</ordinal>
          <questionText>What was the condition of the specimen?</questionText>
          <simpleDatatype>Char</simpleDatatype>
        </field>
        <field>
          <_links>
            <self>
              <href>/mdr/cdashig/2-1/scenarios/LB.LocalProcessing/fields/LBTEST</href>
              <title>Lab Test or Examination Name</title>
              <type>Data Collection Field</type>
            </self>
          </_links>
          <core>HR</core>
          <definition>Descriptive name of the lab test or examination used to obtain the measurement or finding. Any test normally performed by a clinical laboratory is considered a lab test.</definition>
          <label>Lab Test or Examination Name</label>
          <name>LBTEST</name>
          <ordinal>15</ordinal>
          <questionText>What was the lab test name?</questionText>
          <simpleDatatype>Char</simpleDatatype>
        </field>
        <field>
          <_links>
            <self>
              <href>/mdr/cdashig/2-1/scenarios/LB.LocalProcessing/fields/LBORRES</href>
              <title>Lab Result or Finding in Original Units</title>
              <type>Data Collection Field</type>
            </self>
          </_links>
          <core>HR</core>
          <definition>Result of the measurement or finding as originally received or collected.</definition>
          <label>Lab Result or Finding in Original Units</label>
          <name>LBORRES</name>
          <ordinal>16</ordinal>
          <questionText>What was the result of the lab test?</questionText>
          <simpleDatatype>Char</simpleDatatype>
        </field>
        <field>
          <_links>
            <self>
              <href>/mdr/cdashig/2-1/scenarios/LB.LocalProcessing/fields/LBMETHOD</href>
              <title>Lab Method of Test or Examination</title>
              <type>Data Collection Field</type>
            </self>
          </_links>
          <core>O</core>
          <definition>Method of the test or examination.</definition>
          <label>Lab Method of Test or Examination</label>
          <name>LBMETHOD</name>
          <ordinal>17</ordinal>
          <questionText>What was the method used for the lab test or examination?</questionText>
          <simpleDatatype>Char</simpleDatatype>
        </field>
        <field>
          <_links>
            <self>
              <href>/mdr/cdashig/2-1/scenarios/LB.LocalProcessing/fields/LBORRESU</href>
              <title>Lab Original Units</title>
              <type>Data Collection Field</type>
            </self>
          </_links>
          <core>R/C</core>
          <definition>The unit of the result as originally received or collected.</definition>
          <label>Lab Original Units</label>
          <name>LBORRESU</name>
          <ordinal>18</ordinal>
          <questionText>What was the unit of the lab result?</questionText>
          <simpleDatatype>Char</simpleDatatype>
        </field>
        <field>
          <_links>
            <self>
              <href>/mdr/cdashig/2-1/scenarios/LB.LocalProcessing/fields/LBCRESU</href>
              <title>Lab Collected Non-Standard Unit</title>
              <type>Data Collection Field</type>
            </self>
          </_links>
          <core>O</core>
          <definition>The unit of the result as originally received if it were collected as a non-standard unit.</definition>
          <label>Lab Collected Non-Standard Unit</label>
          <name>LBCRESU</name>
          <ordinal>19</ordinal>
          <questionText>What was the unit of the lab result?</questionText>
          <simpleDatatype>Char</simpleDatatype>
        </field>
        <field>
          <_links>
            <self>
              <href>/mdr/cdashig/2-1/scenarios/LB.LocalProcessing/fields/LBTOXGR</href>
              <title>Lab Standard Toxicity Grade</title>
              <type>Data Collection Field</type>
            </self>
          </_links>
          <core>O</core>
          <definition>The toxicity grade using a standard toxicity scale (e.g., NCI CTCAE).</definition>
          <label>Lab Standard Toxicity Grade</label>
          <name>LBTOXGR</name>
          <ordinal>20</ordinal>
          <questionText>What is the Toxicity Grade?</questionText>
          <simpleDatatype>Char</simpleDatatype>
        </field>
        <field>
          <_links>
            <self>
              <href>/mdr/cdashig/2-1/scenarios/LB.LocalProcessing/fields/LBTOX</href>
              <title>Lab Toxicity</title>
              <type>Data Collection Field</type>
            </self>
          </_links>
          <core>O</core>
          <definition>A description of toxicity quantified by LBTOXGR (e.g., NCI CTCAE Short Name).</definition>
          <label>Lab Toxicity</label>
          <name>LBTOX</name>
          <ordinal>21</ordinal>
          <questionText>What is the description of the toxicity?</questionText>
          <simpleDatatype>Char</simpleDatatype>
        </field>
        <field>
          <_links>
            <self>
              <href>/mdr/cdashig/2-1/scenarios/LB.LocalProcessing/fields/LBORNRLO</href>
              <title>Lab Ref Range Lower Limit in Orig Unit</title>
              <type>Data Collection Field</type>
            </self>
          </_links>
          <core>R/C</core>
          <definition>The lower end of normal range or reference range for continuous results stored in LBORRES.</definition>
          <label>Lab Ref Range Lower Limit in Orig Unit</label>
          <name>LBORNRLO</name>
          <ordinal>22</ordinal>
          <questionText>What was the lower limit of the reference range for this lab test?</questionText>
          <simpleDatatype>Char</simpleDatatype>
        </field>
        <field>
          <_links>
            <self>
              <href>/mdr/cdashig/2-1/scenarios/LB.LocalProcessing/fields/LBORNRHI</href>
              <title>Lab Ref Range Upper Limit in Orig Unit</title>
              <type>Data Collection Field</type>
            </self>
          </_links>
          <core>R/C</core>
          <definition>The upper end of normal range or reference range for continuous results stored in LBORRES.</definition>
          <label>Lab Ref Range Upper Limit in Orig Unit</label>
          <name>LBORNRHI</name>
          <ordinal>23</ordinal>
          <questionText>What was the high limit of the reference range for this lab test?</questionText>
          <simpleDatatype>Char</simpleDatatype>
        </field>
        <field>
          <_links>
            <self>
              <href>/mdr/cdashig/2-1/scenarios/LB.LocalProcessing/fields/LBNRIND</href>
              <title>Lab Reference Range Indicator</title>
              <type>Data Collection Field</type>
            </self>
          </_links>
          <core>R/C</core>
          <definition>An indication or description about how the value compares to the normal range or reference range.</definition>
          <label>Lab Reference Range Indicator</label>
          <name>LBNRIND</name>
          <ordinal>24</ordinal>
          <questionText>How [did/do] the reported values compare within the [reference/normal/expected] range?</questionText>
          <simpleDatatype>Char</simpleDatatype>
        </field>
        <field>
          <_links>
            <self>
              <href>/mdr/cdashig/2-1/scenarios/LB.LocalProcessing/fields/LBCLSIG</href>
              <title>Lab Clinical Significance</title>
              <type>Data Collection Field</type>
            </self>
          </_links>
          <core>O</core>
          <definition>An indication whether lab test results were clinically significant.</definition>
          <label>Lab Clinical Significance</label>
          <name>LBCLSIG</name>
          <ordinal>25</ordinal>
          <questionText>Was this result clinically significant?</questionText>
          <simpleDatatype>Char</simpleDatatype>
        </field>
        <field>
          <_links>
            <self>
              <href>/mdr/cdashig/2-1/scenarios/LB.LocalProcessing/fields/LBNAM</href>
              <title>Vendor Name</title>
              <type>Data Collection Field</type>
            </self>
          </_links>
          <core>R/C</core>
          <definition>The name or identifier of the vendor (e.g., laboratory) that provided the test results.</definition>
          <label>Vendor Name</label>
          <name>LBNAM</name>
          <ordinal>26</ordinal>
          <questionText>What was the name of the laboratory used?</questionText>
          <simpleDatatype>Char</simpleDatatype>
        </field>
        <ordinal>8</ordinal>
        <scenario>Local Processing</scenario>
      </scenario>
      <scenario>
        <_links>
          <self>
            <href>/mdr/cdashig/2-1/scenarios/VS.HorizontalGeneric</href>
            <title>VS - Implementation Options: HorizontalGeneric</title>
            <type>CDASH Scenario</type>
          </self>
        </_links>
        <domain>Vital Signs</domain>
        <field>
          <_links>
            <self>
              <href>/mdr/cdashig/2-1/scenarios/VS.Generic/fields/STUDYID</href>
              <title>Study Identifier</title>
              <type>Data Collection Field</type>
            </self>
          </_links>
          <core>HR</core>
          <definition>A unique identifier for a study.</definition>
          <label>Study Identifier</label>
          <name>STUDYID</name>
          <ordinal>1</ordinal>
          <questionText>What is the study identifier?</questionText>
          <simpleDatatype>Char</simpleDatatype>
        </field>
        <field>
          <_links>
            <self>
              <href>/mdr/cdashig/2-1/scenarios/VS.Generic/fields/SITEID</href>
              <title>Study Site Identifier</title>
              <type>Data Collection Field</type>
            </self>
          </_links>
          <core>HR</core>
          <definition>A unique identifier for a site within a study.</definition>
          <label>Study Site Identifier</label>
          <name>SITEID</name>
          <ordinal>2</ordinal>
          <questionText>What is the site identifier?</questionText>
          <simpleDatatype>Char</simpleDatatype>
        </field>
        <field>
          <_links>
            <self>
              <href>/mdr/cdashig/2-1/scenarios/VS.Generic/fields/SUBJID</href>
              <title>Subject Identifier for the Study</title>
              <type>Data Collection Field</type>
            </self>
          </_links>
          <core>HR</core>
          <definition>A unique subject identifier within a site and a study.</definition>
          <label>Subject Identifier for the Study</label>
          <name>SUBJID</name>
          <ordinal>3</ordinal>
          <questionText>What [is/was] the (study) [subject/participant] identifier?</questionText>
          <simpleDatatype>Char</simpleDatatype>
        </field>
        <field>
          <_links>
            <self>
              <href>/mdr/cdashig/2-1/scenarios/VS.Generic/fields/VISIT</href>
              <title>Visit Name</title>
              <type>Data Collection Field</type>
            </self>
          </_links>
          <core>R/C</core>
          <definition>The name of a clinical encounter that encompasses planned and unplanned trial interventions, procedures, and assessments that may be performed on a subject.</definition>
          <label>Visit Name</label>
          <name>VISIT</name>
          <ordinal>4</ordinal>
          <questionText>What is the visit name?</questionText>
          <simpleDatatype>Char</simpleDatatype>
        </field>
        <field>
          <_links>
            <self>
              <href>/mdr/cdashig/2-1/scenarios/VS.Generic/fields/VISDAT</href>
              <title>Visit Date</title>
              <type>Data Collection Field</type>
            </self>
          </_links>
          <core>R/C</core>
          <definition>Date the clinical encounter occurred (or started).</definition>
          <label>Visit Date</label>
          <name>VISDAT</name>
          <ordinal>5</ordinal>
          <questionText>What [is/was] the date of the visit?</questionText>
          <simpleDatatype>Char</simpleDatatype>
        </field>
        <field>
          <_links>
            <self>
              <href>/mdr/cdashig/2-1/scenarios/VS.Generic/fields/VSPERF</href>
              <title>Vital Signs Performed</title>
              <type>Data Collection Field</type>
            </self>
          </_links>
          <core>O</core>
          <definition>An indication whether or not a planned vital signs measurement, series of vital signs measurements, tests, or observations was performed.</definition>
          <label>Vital Signs Performed</label>
          <name>[VSTESTCD]_VSPERF</name>
          <ordinal>6</ordinal>
          <questionText>Were [vital signs/[VSTEST] performed?</questionText>
          <simpleDatatype>Char</simpleDatatype>
        </field>
        <field>
          <_links>
            <self>
              <href>/mdr/cdashig/2-1/scenarios/VS.Generic/fields/VSDAT</href>
              <title>Vital Signs Date</title>
              <type>Data Collection Field</type>
            </self>
          </_links>
          <core>R/C</core>
          <definition>The date of the vital signs measurement, represented in an unambiguous date format (e.g., DD-MON-YYYY).</definition>
          <label>Vital Signs Date</label>
          <name>[VSTESTCD]_VSDAT</name>
          <ordinal>7</ordinal>
          <questionText>What was the date of the measurement(s)?</questionText>
          <simpleDatatype>Char</simpleDatatype>
        </field>
        <field>
          <_links>
            <self>
              <href>/mdr/cdashig/2-1/scenarios/VS.Generic/fields/VSTIM</href>
              <title>Vital Signs Time</title>
              <type>Data Collection Field</type>
            </self>
          </_links>
          <core>R/C</core>
          <definition>The time of measurement, represented in an unambiguous time format (e.g., hh:mm:ss).</definition>
          <label>Vital Signs Time</label>
          <name>[VSTESTCD]_VSTIM</name>
          <ordinal>8</ordinal>
          <questionText>What was the time of the measurement(s)?</questionText>
          <simpleDatatype>Char</simpleDatatype>
        </field>
        <field>
          <_links>
            <self>
              <href>/mdr/cdashig/2-1/scenarios/VS.Generic/fields/VSCAT</href>
              <title>Category for Vital Signs</title>
              <type>Data Collection Field</type>
            </self>
          </_links>
          <core>O</core>
          <definition>A grouping of topic-variable values based on user-defined characteristics.</definition>
          <label>Category for Vital Signs</label>
          <name>VSCAT</name>
          <ordinal>9</ordinal>
          <questionText>What was the category of the vital signs?</questionText>
          <simpleDatatype>Char</simpleDatatype>
        </field>
        <field>
          <_links>
            <self>
              <href>/mdr/cdashig/2-1/scenarios/VS.Generic/fields/VSSCAT</href>
              <title>Subcategory for Vital Signs</title>
              <type>Data Collection Field</type>
            </self>
          </_links>
          <core>O</core>
          <definition>A sub-division of the VSCAT values based on user-defined characteristics.</definition>
          <label>Subcategory for Vital Signs</label>
          <name>VSSCAT</name>
          <ordinal>10</ordinal>
          <questionText>What was the subcategory of the vital signs?</questionText>
          <simpleDatatype>Char</simpleDatatype>
        </field>
        <field>
          <_links>
            <self>
              <href>/mdr/cdashig/2-1/scenarios/VS.Generic/fields/VSGRPID</href>
              <title>Vital Signs Group ID</title>
              <type>Data Collection Field</type>
            </self>
          </_links>
          <core>O</core>
          <definition>A sponsor-defined identifier used to tie a block of related records in a single domain.</definition>
          <label>Vital Signs Group ID</label>
          <name>VSGRPID</name>
          <ordinal>11</ordinal>
          <questionText>What is the vital signs group identifier?</questionText>
          <simpleDatatype>Char</simpleDatatype>
        </field>
        <field>
          <_links>
            <self>
              <href>/mdr/cdashig/2-1/scenarios/VS.Generic/fields/VSTPT</href>
              <title>Vital Signs Planned Time Point Name</title>
              <type>Data Collection Field</type>
            </self>
          </_links>
          <core>R/C</core>
          <definition>A text description of planned time point when measurements should be taken as defined in the protocol.</definition>
          <label>Vital Signs Planned Time Point Name</label>
          <name>[VSTESTCD]_VSTPT</name>
          <ordinal>12</ordinal>
          <questionText>What is the planned time point for this vital signs measurement?</questionText>
          <simpleDatatype>Char</simpleDatatype>
        </field>
        <field>
          <_links>
            <self>
