<?xml version="1.0" encoding="utf-8"?>
<cdiscLibrary>
    <product>
        <_links>
            <self>
                <href>/mdr/sdtmig/3-2</href>
                <title>Study Data Tabulation Model Implementation Guide: Human Clinical Trials Version 3.2 (Final)</title>
                <type>Implementation Guide</type>
            </self>
        </_links>
        <class>
            <_links>
                <self>
                    <href>/mdr/sdtmig/3-2/classes/SpecialPurpose</href>
                    <title>Special-Purpose Datasets</title>
                    <type>Class</type>
                </self>
            </_links>
            <dataset>
                <_links>
                    <self>
                        <href>/mdr/sdtmig/3-2/datasets/DM</href>
                        <title>Demographics</title>
                        <type>SDTM Dataset</type>
                    </self>
                </_links>
                <datasetVariable>
                    <_links>
                        <self>
                            <href>/mdr/sdtmig/3-2/datasets/DM/variables/STUDYID</href>
                            <title>Study Identifier</title>
                            <type>SDTM Dataset Variable</type>
                        </self>
                    </_links>
                    <core>Req</core>
                    <description>Unique identifier for a study.</description>
                    <label>Study Identifier</label>
                    <name>STUDYID</name>
                    <ordinal>1</ordinal>
                    <simpleDatatype>Char</simpleDatatype>
                </datasetVariable>
                <datasetVariable>
                    <_links>
                        <self>
                            <href>/mdr/sdtmig/3-2/datasets/DM/variables/DOMAIN</href>
                            <title>Domain Abbreviation</title>
                            <type>SDTM Dataset Variable</type>
                        </self>
                    </_links>
                    <core>Req</core>
                    <description>Two-character abbreviation for the domain.</description>
                    <label>Domain Abbreviation</label>
                    <name>DOMAIN</name>
                    <ordinal>2</ordinal>
                    <simpleDatatype>Char</simpleDatatype>
                    <valueList>
                        <value>DM</value>
                    </valueList>
                </datasetVariable>
                <datasetVariable>
                    <_links>
                        <self>
                            <href>/mdr/sdtmig/3-2/datasets/DM/variables/USUBJID</href>
                            <title>Unique Subject Identifier</title>
                            <type>SDTM Dataset Variable</type>
                        </self>
                    </_links>
                    <core>Req</core>
                    <description>Identifier used to uniquely identify a subject across all studies for all applications or submissions involving the product. This must be a unique number, and could be a compound identifier formed by concatenating STUDYID-SITEID-SUBJID.</description>
                    <label>Unique Subject Identifier</label>
                    <name>USUBJID</name>
                    <ordinal>3</ordinal>
                    <simpleDatatype>Char</simpleDatatype>
                </datasetVariable>
                <datasetVariable>
                    <_links>
                        <self>
                            <href>/mdr/sdtmig/3-2/datasets/DM/variables/SUBJID</href>
                            <title>Subject Identifier for the Study</title>
                            <type>SDTM Dataset Variable</type>
                        </self>
                    </_links>
                    <core>Req</core>
                    <description>Subject identifier, which must be unique within the study. Often the ID of the subject as recorded on a CRF.</description>
                    <label>Subject Identifier for the Study</label>
                    <name>SUBJID</name>
                    <ordinal>4</ordinal>
                    <simpleDatatype>Char</simpleDatatype>
                </datasetVariable>
                <datasetVariable>
                    <_links>
                        <self>
                            <href>/mdr/sdtmig/3-2/datasets/DM/variables/RFSTDTC</href>
                            <title>Subject Reference Start Date/Time</title>
                            <type>SDTM Dataset Variable</type>
                        </self>
                    </_links>
                    <core>Exp</core>
                    <describedValueDomain>ISO 8601</describedValueDomain>
                    <description>Reference Start Date/time for the subject in ISO 8601 character format. Usually equivalent to date/time when subject was first exposed to study treatment. Required for all randomized subjects; will be null for all subjects who did not meet the milestone the date requires, such as screen failures or unassigned subjects.</description>
                    <label>Subject Reference Start Date/Time</label>
                    <name>RFSTDTC</name>
                    <ordinal>5</ordinal>
                    <simpleDatatype>Char</simpleDatatype>
                </datasetVariable>
                <datasetVariable>
                    <_links>
                        <self>
                            <href>/mdr/sdtmig/3-2/datasets/DM/variables/RFENDTC</href>
                            <title>Subject Reference End Date/Time</title>
                            <type>SDTM Dataset Variable</type>
                        </self>
                    </_links>
                    <core>Exp</core>
                    <describedValueDomain>ISO 8601</describedValueDomain>
                    <description>Reference End Date/time for the subject in ISO 8601 character format. Usually equivalent to the date/time when subject was determined to have ended the trial, and often equivalent to date/time of last exposure to study treatment. Required for all randomized subjects; null for screen failures or unassigned subjects.</description>
                    <label>Subject Reference End Date/Time</label>
                    <name>RFENDTC</name>
                    <ordinal>6</ordinal>
                    <simpleDatatype>Char</simpleDatatype>
                </datasetVariable>
                <datasetVariable>
                    <_links>
                        <self>
                            <href>/mdr/sdtmig/3-2/datasets/DM/variables/RFXSTDTC</href>
                            <title>Date/Time of First Study Treatment</title>
                            <type>SDTM Dataset Variable</type>
                        </self>
                    </_links>
                    <core>Exp</core>
                    <describedValueDomain>ISO 8601</describedValueDomain>
                    <description>First date of exposure to any protocol-specified treatment or therapy, equal to the earliest value of EXSTDTC.</description>
                    <label>Date/Time of First Study Treatment</label>
                    <name>RFXSTDTC</name>
                    <ordinal>7</ordinal>
                    <simpleDatatype>Char</simpleDatatype>
                </datasetVariable>
                <datasetVariable>
                    <_links>
                        <self>
                            <href>/mdr/sdtmig/3-2/datasets/DM/variables/RFXENDTC</href>
                            <title>Date/Time of Last Study Treatment</title>
                            <type>SDTM Dataset Variable</type>
                        </self>
                    </_links>
                    <core>Exp</core>
                    <describedValueDomain>ISO 8601</describedValueDomain>
                    <description>Last date of exposure to any protocol-specified treatment or therapy, equal to the latest value of EXENDTC (or the latest value of EXSTDTC if EXENDTC was not collected or is missing).</description>
                    <label>Date/Time of Last Study Treatment</label>
                    <name>RFXENDTC</name>
                    <ordinal>8</ordinal>
                    <simpleDatatype>Char</simpleDatatype>
                </datasetVariable>
                <datasetVariable>
                    <_links>
                        <self>
                            <href>/mdr/sdtmig/3-2/datasets/DM/variables/RFICDTC</href>
                            <title>Date/Time of Informed Consent</title>
                            <type>SDTM Dataset Variable</type>
                        </self>
                    </_links>
                    <core>Exp</core>
                    <describedValueDomain>ISO 8601</describedValueDomain>
                    <description>Date/time of informed consent in ISO 8601 character format. This will be the same as the date of informed consent in the Disposition domain, if that protocol milestone is documented. Would be null only in studies not collecting the date of informed consent.</description>
                    <label>Date/Time of Informed Consent</label>
                    <name>RFICDTC</name>
                    <ordinal>9</ordinal>
                    <simpleDatatype>Char</simpleDatatype>
                </datasetVariable>
                <datasetVariable>
                    <_links>
                        <self>
                            <href>/mdr/sdtmig/3-2/datasets/DM/variables/RFPENDTC</href>
                            <title>Date/Time of End of Participation</title>
                            <type>SDTM Dataset Variable</type>
                        </self>
                    </_links>
                    <core>Exp</core>
                    <describedValueDomain>ISO 8601</describedValueDomain>
                    <description>Date/time when subject ended participation or follow-up in a trial, as defined in the protocol, in ISO 8601 character format. Should correspond to the last known date of contact. Examples include completion date, withdrawal date, last follow-up, date recorded for lost to follow up, or death date.</description>
                    <label>Date/Time of End of Participation</label>
                    <name>RFPENDTC</name>
                    <ordinal>10</ordinal>
                    <simpleDatatype>Char</simpleDatatype>
                </datasetVariable>
                <datasetVariable>
                    <_links>
                        <self>
                            <href>/mdr/sdtmig/3-2/datasets/DM/variables/DTHDTC</href>
                            <title>Date/Time of Death</title>
                            <type>SDTM Dataset Variable</type>
                        </self>
                    </_links>
                    <core>Exp</core>
                    <describedValueDomain>ISO 8601</describedValueDomain>
                    <description>Date/time of death for any subject who died, in ISO 8601 format. Should represent the date/time that is captured in the clinical-trial database.</description>
                    <label>Date/Time of Death</label>
                    <name>DTHDTC</name>
                    <ordinal>11</ordinal>
                    <simpleDatatype>Char</simpleDatatype>
                </datasetVariable>
                <datasetVariable>
                    <_links>
                        <self>
                            <href>/mdr/sdtmig/3-2/datasets/DM/variables/DTHFL</href>
                            <title>Subject Death Flag</title>
                            <type>SDTM Dataset Variable</type>
                        </self>
                    </_links>
                    <core>Exp</core>
                    <description>Indicates the subject died. Should be Y or null. Should be populated even when the death date is unknown.</description>
                    <label>Subject Death Flag</label>
                    <name>DTHFL</name>
                    <ordinal>12</ordinal>
                    <simpleDatatype>Char</simpleDatatype>
                </datasetVariable>
                <datasetVariable>
                    <_links>
                        <self>
                            <href>/mdr/sdtmig/3-2/datasets/DM/variables/SITEID</href>
                            <title>Study Site Identifier</title>
                            <type>SDTM Dataset Variable</type>
                        </self>
                    </_links>
                    <core>Req</core>
                    <description>Unique identifier for a site within a study.</description>
                    <label>Study Site Identifier</label>
                    <name>SITEID</name>
                    <ordinal>13</ordinal>
                    <simpleDatatype>Char</simpleDatatype>
                </datasetVariable>
                <datasetVariable>
                    <_links>
                        <self>
                            <href>/mdr/sdtmig/3-2/datasets/DM/variables/INVID</href>
                            <title>Investigator Identifier</title>
                            <type>SDTM Dataset Variable</type>
                        </self>
                    </_links>
                    <core>Perm</core>
                    <description>An identifier to describe the Investigator for the study. May be used in addition to SITEID. Not needed if SITEID is equivalent to INVID.</description>
                    <label>Investigator Identifier</label>
                    <name>INVID</name>
                    <ordinal>14</ordinal>
                    <simpleDatatype>Char</simpleDatatype>
                </datasetVariable>
                <datasetVariable>
                    <_links>
                        <self>
                            <href>/mdr/sdtmig/3-2/datasets/DM/variables/INVNAM</href>
                            <title>Investigator Name</title>
                            <type>SDTM Dataset Variable</type>
                        </self>
                    </_links>
                    <core>Perm</core>
                    <description>Name of the investigator for a site.</description>
                    <label>Investigator Name</label>
                    <name>INVNAM</name>
                    <ordinal>15</ordinal>
                    <simpleDatatype>Char</simpleDatatype>
                </datasetVariable>
                <datasetVariable>
                    <_links>
                        <self>
                            <href>/mdr/sdtmig/3-2/datasets/DM/variables/BRTHDTC</href>
                            <title>Date/Time of Birth</title>
                            <type>SDTM Dataset Variable</type>
                        </self>
                    </_links>
                    <core>Perm</core>
                    <describedValueDomain>ISO 8601</describedValueDomain>
                    <description>Date/time of birth of the subject.</description>
                    <label>Date/Time of Birth</label>
                    <name>BRTHDTC</name>
                    <ordinal>16</ordinal>
                    <simpleDatatype>Char</simpleDatatype>
                </datasetVariable>
                <datasetVariable>
                    <_links>
                        <self>
                            <href>/mdr/sdtmig/3-2/datasets/DM/variables/AGE</href>
                            <title>Age</title>
                            <type>SDTM Dataset Variable</type>
                        </self>
                    </_links>
                    <core>Exp</core>
                    <description>Age expressed in AGEU. May be derived from RFSTDTC and BRTHDTC, but BRTHDTC may not be available in all cases (due to subject privacy concerns).</description>
                    <label>Age</label>
                    <name>AGE</name>
                    <ordinal>17</ordinal>
                    <simpleDatatype>Num</simpleDatatype>
                </datasetVariable>
                <datasetVariable>
                    <_links>
                        <self>
                            <href>/mdr/sdtmig/3-2/datasets/DM/variables/AGEU</href>
                            <title>Age Units</title>
                            <type>SDTM Dataset Variable</type>
                        </self>
                    </_links>
                    <core>Exp</core>
                    <description>Units associated with AGE.</description>
                    <label>Age Units</label>
                    <name>AGEU</name>
                    <ordinal>18</ordinal>
                    <simpleDatatype>Char</simpleDatatype>
                </datasetVariable>
                <datasetVariable>
                    <_links>
                        <self>
                            <href>/mdr/sdtmig/3-2/datasets/DM/variables/SEX</href>
                            <title>Sex</title>
                            <type>SDTM Dataset Variable</type>
                        </self>
                    </_links>
                    <core>Req</core>
                    <description>Sex of the subject.</description>
                    <label>Sex</label>
                    <name>SEX</name>
                    <ordinal>19</ordinal>
                    <simpleDatatype>Char</simpleDatatype>
                </datasetVariable>
                <datasetVariable>
                    <_links>
                        <self>
                            <href>/mdr/sdtmig/3-2/datasets/DM/variables/RACE</href>
                            <title>Race</title>
                            <type>SDTM Dataset Variable</type>
                        </self>
                    </_links>
                    <core>Exp</core>
                    <description>Race of the subject. Sponsors should refer to "Collection of Race and Ethnicity Data in Clinical Trials" (FDA, September 2005) for guidance regarding the collection of race (http://www.fda.gov/RegulatoryInformation/Guidances/ucm126340.htm) See Assumption below regarding RACE.</description>
                    <label>Race</label>
                    <name>RACE</name>
                    <ordinal>20</ordinal>
                    <simpleDatatype>Char</simpleDatatype>
                </datasetVariable>
                <datasetVariable>
                    <_links>
                        <self>
                            <href>/mdr/sdtmig/3-2/datasets/DM/variables/ETHNIC</href>
                            <title>Ethnicity</title>
                            <type>SDTM Dataset Variable</type>
                        </self>
                    </_links>
                    <core>Perm</core>
                    <description>The ethnicity of the subject. Sponsors should refer to "Collection of Race and Ethnicity Data in Clinical Trials" (FDA, September 2005) for guidance regarding the collection of ethnicity (http://www.fda.gov/RegulatoryInformation/Guidances/ucm126340.htm).</description>
                    <label>Ethnicity</label>
                    <name>ETHNIC</name>
                    <ordinal>21</ordinal>
                    <simpleDatatype>Char</simpleDatatype>
                </datasetVariable>
                <datasetVariable>
                    <_links>
                        <self>
                            <href>/mdr/sdtmig/3-2/datasets/DM/variables/ARMCD</href>
                            <title>Planned Arm Code</title>
                            <type>SDTM Dataset Variable</type>
                        </self>
                    </_links>
                    <core>Req</core>
                    <description>ARMCD is limited to 20 characters and does not have special character restrictions. The maximum length of ARMCD is longer than for other "short" variables to accommodate the kind of values that are likely to be needed for crossover trials. For example, if ARMCD values for a seven-period crossover were constructed using two-character abbreviations for each treatment and separating hyphens, the length of ARMCD values would be 20.</description>
                    <label>Planned Arm Code</label>
                    <name>ARMCD</name>
                    <ordinal>22</ordinal>
                    <simpleDatatype>Char</simpleDatatype>
                </datasetVariable>
                <datasetVariable>
                    <_links>
                        <self>
                            <href>/mdr/sdtmig/3-2/datasets/DM/variables/ARM</href>
                            <title>Description of Planned Arm</title>
                            <type>SDTM Dataset Variable</type>
                        </self>
                    </_links>
                    <core>Req</core>
                    <description>Name of the Arm to which the subject was assigned.</description>
                    <label>Description of Planned Arm</label>
                    <name>ARM</name>
                    <ordinal>23</ordinal>
                    <simpleDatatype>Char</simpleDatatype>
                </datasetVariable>
                <datasetVariable>
                    <_links>
                        <self>
                            <href>/mdr/sdtmig/3-2/datasets/DM/variables/ACTARMCD</href>
                            <title>Actual Arm Code</title>
                            <type>SDTM Dataset Variable</type>
                        </self>
                    </_links>
                    <core>Req</core>
                    <description>Code of actual Arm. When an Arm is not planned (not in Trial Arms), ACTARMCD will be UNPLAN. Randomized subjects who were not treated will be given a value of NOTTRT. Values should be "SCRNFAIL" for screen failures and "NOTASSGN" for subjects not assigned to treatment. Restricted to values in Trial Arms in all other cases. ACTARMCD is limited to 20 characters and does not have special character restrictions. The maximum length of ACTARMCD is longer than for other short variables to accommodate the kind of values that are likely to be needed for crossover trials.</description>
                    <label>Actual Arm Code</label>
                    <name>ACTARMCD</name>
                    <ordinal>24</ordinal>
                    <simpleDatatype>Char</simpleDatatype>
                </datasetVariable>
                <datasetVariable>
                    <_links>
                        <self>
                            <href>/mdr/sdtmig/3-2/datasets/DM/variables/ACTARM</href>
                            <title>Description of Actual Arm</title>
                            <type>SDTM Dataset Variable</type>
                        </self>
                    </_links>
                    <core>Req</core>
                    <description>Description of actual Arm. When an Arm is not planned (not in Trial Arms), ACTARM will be "Unplanned Treatment". Randomized subjects who were not treated will be given a value of "Not Treated". Values should be "Screen Failure" for screen failures and "Not Assigned" for subjects not assigned to treatment. Restricted to values in Trial Arms in all other cases.</description>
                    <label>Description of Actual Arm</label>
                    <name>ACTARM</name>
                    <ordinal>25</ordinal>
                    <simpleDatatype>Char</simpleDatatype>
                </datasetVariable>
                <datasetVariable>
                    <_links>
                        <self>
                            <href>/mdr/sdtmig/3-2/datasets/DM/variables/COUNTRY</href>
                            <title>Country</title>
                            <type>SDTM Dataset Variable</type>
                        </self>
                    </_links>
                    <core>Req</core>
                    <describedValueDomain>ISO 3166-1 Alpha-3</describedValueDomain>
                    <description>Country of the investigational site in which the subject participated in the trial.</description>
                    <label>Country</label>
                    <name>COUNTRY</name>
                    <ordinal>26</ordinal>
                    <simpleDatatype>Char</simpleDatatype>
                </datasetVariable>
                <datasetVariable>
                    <_links>
                        <self>
                            <href>/mdr/sdtmig/3-2/datasets/DM/variables/DMDTC</href>
                            <title>Date/Time of Collection</title>
                            <type>SDTM Dataset Variable</type>
                        </self>
                    </_links>
                    <core>Perm</core>
                    <describedValueDomain>ISO 8601</describedValueDomain>
                    <description>Date/time of demographic data collection.</description>
                    <label>Date/Time of Collection</label>
                    <name>DMDTC</name>
                    <ordinal>27</ordinal>
                    <simpleDatatype>Char</simpleDatatype>
                </datasetVariable>
                <datasetVariable>
                    <_links>
                        <self>
                            <href>/mdr/sdtmig/3-2/datasets/DM/variables/DMDY</href>
                            <title>Study Day of Collection</title>
                            <type>SDTM Dataset Variable</type>
                        </self>
                    </_links>
                    <core>Perm</core>
                    <description>Study day of collection measured as integer days.</description>
                    <label>Study Day of Collection</label>
                    <name>DMDY</name>
                    <ordinal>28</ordinal>
                    <simpleDatatype>Num</simpleDatatype>
                </datasetVariable>
                <description>A special-purpose domain that includes a set of essential standard variables that describe each subject in a clinical study. It is the parent domain for all other observations for human clinical subjects. (Source: CDISC Controlled Terminology, DOMAIN, C49572, 2018-06-29)</description>
                <label>Demographics</label>
                <name>DM</name>
                <ordinal>2</ordinal>
            </dataset>
            <description>This SDTM class contains a set of domains which do not conform to the Findings, Events or Interventions observation classes. The domains included are DM, CO, SE and SV. (Source: CDISC Controlled Terminology, GNRLOBSC, C103377, 2018-06-29)</description>
            <label>Special-Purpose Datasets</label>
            <name>Special-Purpose</name>
            <ordinal>2</ordinal>
        </class>
        <class>
            <_links>
                <self>
                    <href>/mdr/sdtmig/3-2/classes/Interventions</href>
                    <title>Interventions Observation Class</title>
                    <type>Class</type>
                </self>
            </_links>
            <dataset>
                <_links>
                    <self>
                        <href>/mdr/sdtmig/3-2/datasets/CM</href>
                        <title>Concomitant Medications</title>
                        <type>SDTM Dataset</type>
                    </self>
                </_links>
                <datasetVariable>
                    <_links>
                        <self>
                            <href>/mdr/sdtmig/3-2/datasets/CM/variables/STUDYID</href>
                            <title>Study Identifier</title>
                            <type>SDTM Dataset Variable</type>
                        </self>
                    </_links>
                    <core>Req</core>
                    <description>Unique identifier for a study.</description>
                    <label>Study Identifier</label>
                    <name>STUDYID</name>
                    <ordinal>1</ordinal>
                    <simpleDatatype>Char</simpleDatatype>
                </datasetVariable>
                <datasetVariable>
                    <_links>
                        <self>
                            <href>/mdr/sdtmig/3-2/datasets/CM/variables/DOMAIN</href>
                            <title>Domain Abbreviation</title>
                            <type>SDTM Dataset Variable</type>
                        </self>
                    </_links>
                    <core>Req</core>
                    <description>Two-character abbreviation for the domain.</description>
                    <label>Domain Abbreviation</label>
                    <name>DOMAIN</name>
                    <ordinal>2</ordinal>
                    <simpleDatatype>Char</simpleDatatype>
                    <valueList>
                        <value>CM</value>
                    </valueList>
                </datasetVariable>
                <datasetVariable>
                    <_links>
                        <self>
                            <href>/mdr/sdtmig/3-2/datasets/CM/variables/USUBJID</href>
                            <title>Unique Subject Identifier</title>
                            <type>SDTM Dataset Variable</type>
                        </self>
                    </_links>
                    <core>Req</core>
                    <description>Identifier used to uniquely identify a subject across all studies for all applications or submissions involving the product.</description>
                    <label>Unique Subject Identifier</label>
                    <name>USUBJID</name>
                    <ordinal>3</ordinal>
                    <simpleDatatype>Char</simpleDatatype>
                </datasetVariable>
                <datasetVariable>
                    <_links>
                        <self>
                            <href>/mdr/sdtmig/3-2/datasets/CM/variables/CMSEQ</href>
                            <title>Sequence Number</title>
                            <type>SDTM Dataset Variable</type>
                        </self>
                    </_links>
                    <core>Req</core>
                    <description>Sequence Number given to ensure uniqueness of subject records within a domain. May be any valid number.</description>
                    <label>Sequence Number</label>
                    <name>CMSEQ</name>
                    <ordinal>4</ordinal>
                    <simpleDatatype>Num</simpleDatatype>
                </datasetVariable>
                <datasetVariable>
                    <_links>
                        <self>
                            <href>/mdr/sdtmig/3-2/datasets/CM/variables/CMGRPID</href>
                            <title>Group ID</title>
                            <type>SDTM Dataset Variable</type>
                        </self>
                    </_links>
                    <core>Perm</core>
                    <description>Used to tie together a block of related records in a single domain for a subject.</description>
                    <label>Group ID</label>
                    <name>CMGRPID</name>
                    <ordinal>5</ordinal>
                    <simpleDatatype>Char</simpleDatatype>
                </datasetVariable>
                <datasetVariable>
                    <_links>
                        <self>
                            <href>/mdr/sdtmig/3-2/datasets/CM/variables/CMSPID</href>
                            <title>Sponsor-Defined Identifier</title>
                            <type>SDTM Dataset Variable</type>
                        </self>
                    </_links>
                    <core>Perm</core>
                    <description>Sponsor-defined reference number. Examples: a number pre-printed on the CRF as an explicit line identifier or record identifier defined in the sponsor's operational database. Example: line number on a concomitant medication page.</description>
                    <label>Sponsor-Defined Identifier</label>
                    <name>CMSPID</name>
                    <ordinal>6</ordinal>
                    <simpleDatatype>Char</simpleDatatype>
                </datasetVariable>
                <datasetVariable>
                    <_links>
                        <self>
                            <href>/mdr/sdtmig/3-2/datasets/CM/variables/CMTRT</href>
                            <title>Reported Name of Drug, Med, or Therapy</title>
                            <type>SDTM Dataset Variable</type>
                        </self>
                    </_links>
                    <core>Req</core>
                    <description>Verbatim medication name that is either pre-printed or collected on a CRF.</description>
                    <label>Reported Name of Drug, Med, or Therapy</label>
                    <name>CMTRT</name>
                    <ordinal>7</ordinal>
                    <simpleDatatype>Char</simpleDatatype>
                </datasetVariable>
                <datasetVariable>
                    <_links>
                        <self>
                            <href>/mdr/sdtmig/3-2/datasets/CM/variables/CMMODIFY</href>
                            <title>Modified Reported Name</title>
                            <type>SDTM Dataset Variable</type>
                        </self>
                    </_links>
                    <core>Perm</core>
                    <description>If CMTRT is modified to facilitate coding, then CMMODIFY will contain the modified text.</description>
                    <label>Modified Reported Name</label>
                    <name>CMMODIFY</name>
                    <ordinal>8</ordinal>
                    <simpleDatatype>Char</simpleDatatype>
                </datasetVariable>
                <datasetVariable>
                    <_links>
                        <self>
                            <href>/mdr/sdtmig/3-2/datasets/CM/variables/CMDECOD</href>
                            <title>Standardized Medication Name</title>
                            <type>SDTM Dataset Variable</type>
                        </self>
                    </_links>
                    <core>Perm</core>
                    <description>Standardized or dictionary-derived text description of CMTRT or CMMODIFY. Equivalent to the generic medication name in WHO Drug. The sponsor is expected to provide the dictionary name and version used to map the terms utilizing the define.xml external codelist attributes. If an intervention term does not have a decode value in the dictionary then CMDECOD will be left blank.</description>
                    <label>Standardized Medication Name</label>
                    <name>CMDECOD</name>
                    <ordinal>9</ordinal>
                    <simpleDatatype>Char</simpleDatatype>
                </datasetVariable>
                <datasetVariable>
                    <_links>
                        <self>
                            <href>/mdr/sdtmig/3-2/datasets/CM/variables/CMCAT</href>
                            <title>Category for Medication</title>
                            <type>SDTM Dataset Variable</type>
                        </self>
                    </_links>
                    <core>Perm</core>
                    <description>Used to define a category of medications/treatments. Examples: PRIOR, CONCOMITANT, ANTI-CANCER MEDICATION, or GENERAL CONMED.</description>
                    <label>Category for Medication</label>
                    <name>CMCAT</name>
                    <ordinal>10</ordinal>
                    <simpleDatatype>Char</simpleDatatype>
                </datasetVariable>
                <datasetVariable>
                    <_links>
                        <self>
                            <href>/mdr/sdtmig/3-2/datasets/CM/variables/CMSCAT</href>
                            <title>Subcategory for Medication</title>
                            <type>SDTM Dataset Variable</type>
                        </self>
                    </_links>
                    <core>Perm</core>
                    <description>A further categorization of medications/ treatment. Examples: CHEMOTHERAPY, HORMONAL THERAPY, ALTERNATIVE THERAPY.</description>
                    <label>Subcategory for Medication</label>
                    <name>CMSCAT</name>
                    <ordinal>11</ordinal>
                    <simpleDatatype>Char</simpleDatatype>
                </datasetVariable>
                <datasetVariable>
                    <_links>
                        <self>
                            <href>/mdr/sdtmig/3-2/datasets/CM/variables/CMPRESP</href>
                            <title>CM Pre-Specified</title>
                            <type>SDTM Dataset Variable</type>
                        </self>
                    </_links>
                    <core>Perm</core>
                    <description>Used to indicate whether (Y/null) information about the use of a specific medication was solicited on the CRF.</description>
                    <label>CM Pre-Specified</label>
                    <name>CMPRESP</name>
                    <ordinal>12</ordinal>
                    <simpleDatatype>Char</simpleDatatype>
                </datasetVariable>
                <datasetVariable>
                    <_links>
                        <self>
                            <href>/mdr/sdtmig/3-2/datasets/CM/variables/CMOCCUR</href>
                            <title>CM Occurrence</title>
                            <type>SDTM Dataset Variable</type>
                        </self>
                    </_links>
                    <core>Perm</core>
                    <description>When the use of specific medications is solicited, CMOCCUR is used to indicate whether or not (Y/N) use of the medication occurred. Values are null for medications not specifically solicited.</description>
                    <label>CM Occurrence</label>
                    <name>CMOCCUR</name>
                    <ordinal>13</ordinal>
                    <simpleDatatype>Char</simpleDatatype>
                </datasetVariable>
                <datasetVariable>
                    <_links>
                        <self>
                            <href>/mdr/sdtmig/3-2/datasets/CM/variables/CMSTAT</href>
                            <title>Completion Status</title>
                            <type>SDTM Dataset Variable</type>
                        </self>
                    </_links>
                    <core>Perm</core>
                    <description>Used to indicate that a question about a pre-specified medication was not answered. Should be null or have a value of NOT DONE.</description>
                    <label>Completion Status</label>
                    <name>CMSTAT</name>
                    <ordinal>14</ordinal>
                    <simpleDatatype>Char</simpleDatatype>
                </datasetVariable>
                <datasetVariable>
                    <_links>
                        <self>
                            <href>/mdr/sdtmig/3-2/datasets/CM/variables/CMREASND</href>
                            <title>Reason Medication Not Collected</title>
                            <type>SDTM Dataset Variable</type>
                        </self>
                    </_links>
                    <core>Perm</core>
                    <description>Describes the reason concomitant medication was not collected. Used in conjunction with CMSTAT when value is NOT DONE.</description>
                    <label>Reason Medication Not Collected</label>
                    <name>CMREASND</name>
                    <ordinal>15</ordinal>
                    <simpleDatatype>Char</simpleDatatype>
                </datasetVariable>
                <datasetVariable>
                    <_links>
                        <self>
                            <href>/mdr/sdtmig/3-2/datasets/CM/variables/CMINDC</href>
                            <title>Indication</title>
                            <type>SDTM Dataset Variable</type>
                        </self>
                    </_links>
                    <core>Perm</core>
                    <description>Denotes why a medication was taken or administered. Examples: NAUSEA, HYPERTENSION.</description>
                    <label>Indication</label>
                    <name>CMINDC</name>
                    <ordinal>16</ordinal>
                    <simpleDatatype>Char</simpleDatatype>
                </datasetVariable>
                <datasetVariable>
                    <_links>
                        <self>
                            <href>/mdr/sdtmig/3-2/datasets/CM/variables/CMCLAS</href>
                            <title>Medication Class</title>
                            <type>SDTM Dataset Variable</type>
                        </self>
                    </_links>
                    <core>Perm</core>
                    <description>Drug class. May be obtained from coding. When coding to a single class, populate with class value. If using a dictionary and coding to multiple classes, then follow Section 4: 4.1.2.8.3, Multiple Values For A Non-Result Qualifier Variable or omit CMCLAS.</description>
                    <label>Medication Class</label>
                    <name>CMCLAS</name>
                    <ordinal>17</ordinal>
                    <simpleDatatype>Char</simpleDatatype>
                </datasetVariable>
                <datasetVariable>
                    <_links>
                        <self>
                            <href>/mdr/sdtmig/3-2/datasets/CM/variables/CMCLASCD</href>
                            <title>Medication Class Code</title>
                            <type>SDTM Dataset Variable</type>
                        </self>
                    </_links>
                    <core>Perm</core>
                    <description>Class code corresponding to CMCLAS. Drug class. May be obtained from coding. When coding to a single class, populate with class code. If using a dictionary and coding to multiple classes, then follow Section 4: 4.1.2.8.3, Multiple Values For A Non-Result Qualifier Variable or omit CMCLASCD.</description>
                    <label>Medication Class Code</label>
                    <name>CMCLASCD</name>
                    <ordinal>18</ordinal>
                    <simpleDatatype>Char</simpleDatatype>
                </datasetVariable>
                <datasetVariable>
                    <_links>
                        <self>
                            <href>/mdr/sdtmig/3-2/datasets/CM/variables/CMDOSE</href>
                            <title>Dose per Administration</title>
                            <type>SDTM Dataset Variable</type>
                        </self>
                    </_links>
                    <core>Perm</core>
                    <description>Amount of CMTRT taken. Not populated when CMDOSTXT is populated.</description>
                    <label>Dose per Administration</label>
                    <name>CMDOSE</name>
                    <ordinal>19</ordinal>
                    <simpleDatatype>Num</simpleDatatype>
                </datasetVariable>
                <datasetVariable>
                    <_links>
                        <self>
                            <href>/mdr/sdtmig/3-2/datasets/CM/variables/CMDOSTXT</href>
                            <title>Dose Description</title>
                            <type>SDTM Dataset Variable</type>
                        </self>
                    </_links>
                    <core>Perm</core>
                    <description>Dosing amounts or a range of dosing information collected in text form. Units may be stored in CMDOSU. Example: 200-400, 15-20. Not populated when CMDOSE is populated.</description>
                    <label>Dose Description</label>
                    <name>CMDOSTXT</name>
                    <ordinal>20</ordinal>
                    <simpleDatatype>Char</simpleDatatype>
                </datasetVariable>
                <datasetVariable>
                    <_links>
                        <self>
                            <href>/mdr/sdtmig/3-2/datasets/CM/variables/CMDOSU</href>
                            <title>Dose Units</title>
                            <type>SDTM Dataset Variable</type>
                        </self>
                    </_links>
                    <core>Perm</core>
                    <description>Units for CMDOSE, CMDOSTOT, and CMDOSTXT. Examples: ng, mg, or mg/kg.</description>
                    <label>Dose Units</label>
                    <name>CMDOSU</name>
                    <ordinal>21</ordinal>
                    <simpleDatatype>Char</simpleDatatype>
                </datasetVariable>
                <datasetVariable>
                    <_links>
                        <self>
                            <href>/mdr/sdtmig/3-2/datasets/CM/variables/CMDOSFRM</href>
                            <title>Dose Form</title>
                            <type>SDTM Dataset Variable</type>
                        </self>
                    </_links>
                    <core>Perm</core>
                    <description>Dose form for CMTRT. Examples: TABLET, LOTION.</description>
                    <label>Dose Form</label>
                    <name>CMDOSFRM</name>
                    <ordinal>22</ordinal>
                    <simpleDatatype>Char</simpleDatatype>
                </datasetVariable>
                <datasetVariable>
                    <_links>
                        <self>
                            <href>/mdr/sdtmig/3-2/datasets/CM/variables/CMDOSFRQ</href>
                            <title>Dosing Frequency per Interval</title>
                            <type>SDTM Dataset Variable</type>
                        </self>
                    </_links>
                    <core>Perm</core>
                    <description>Usually expressed as the number of repeated administrations of CMDOSE within a specific time period. Examples: BID (twice daily), Q12H (every 12 hours).</description>
                    <label>Dosing Frequency per Interval</label>
                    <name>CMDOSFRQ</name>
                    <ordinal>23</ordinal>
                    <simpleDatatype>Char</simpleDatatype>
                </datasetVariable>
                <datasetVariable>
                    <_links>
                        <self>
                            <href>/mdr/sdtmig/3-2/datasets/CM/variables/CMDOSTOT</href>
                            <title>Total Daily Dose</title>
                            <type>SDTM Dataset Variable</type>
                        </self>
                    </_links>
                    <core>Perm</core>
                    <description>Total daily dose of CMTRT using the units in CMDOSU. Used when dosing is collected as Total Daily Dose. Total dose over a period other than day could be recorded in a separate Supplemental Qualifier variable.</description>
                    <label>Total Daily Dose</label>
                    <name>CMDOSTOT</name>
                    <ordinal>24</ordinal>
                    <simpleDatatype>Num</simpleDatatype>
                </datasetVariable>
                <datasetVariable>
                    <_links>
                        <self>
                            <href>/mdr/sdtmig/3-2/datasets/CM/variables/CMDOSRGM</href>
                            <title>Intended Dose Regimen</title>
                            <type>SDTM Dataset Variable</type>
                        </self>
                    </_links>
                    <core>Perm</core>
                    <description>Text description of the (intended) schedule or regimen for the Intervention. Examples: TWO WEEKS ON, TWO WEEKS OFF.</description>
                    <label>Intended Dose Regimen</label>
                    <name>CMDOSRGM</name>
                    <ordinal>25</ordinal>
                    <simpleDatatype>Char</simpleDatatype>
                </datasetVariable>
                <datasetVariable>
                    <_links>
                        <self>
                            <href>/mdr/sdtmig/3-2/datasets/CM/variables/CMROUTE</href>
                            <title>Route of Administration</title>
                            <type>SDTM Dataset Variable</type>
                        </self>
                    </_links>
                    <core>Perm</core>
                    <description>Route of administration for CMTRT. Examples: ORAL, INTRAVENOUS.</description>
                    <label>Route of Administration</label>
                    <name>CMROUTE</name>
                    <ordinal>26</ordinal>
                    <simpleDatatype>Char</simpleDatatype>
                </datasetVariable>
                <datasetVariable>
                    <_links>
                        <self>
                            <href>/mdr/sdtmig/3-2/datasets/CM/variables/CMSTDTC</href>
                            <title>Start Date/Time of Medication</title>
                            <type>SDTM Dataset Variable</type>
                        </self>
                    </_links>
                    <core>Perm</core>
                    <describedValueDomain>ISO 8601</describedValueDomain>
                    <label>Start Date/Time of Medication</label>
                    <name>CMSTDTC</name>
                    <ordinal>27</ordinal>
                    <simpleDatatype>Char</simpleDatatype>
                </datasetVariable>
                <datasetVariable>
                    <_links>
                        <self>
                            <href>/mdr/sdtmig/3-2/datasets/CM/variables/CMENDTC</href>
                            <title>End Date/Time of Medication</title>
                            <type>SDTM Dataset Variable</type>
                        </self>
                    </_links>
                    <core>Perm</core>
                    <describedValueDomain>ISO 8601</describedValueDomain>
                    <label>End Date/Time of Medication</label>
                    <name>CMENDTC</name>
                    <ordinal>28</ordinal>
                    <simpleDatatype>Char</simpleDatatype>
                </datasetVariable>
                <datasetVariable>
                    <_links>
                        <self>
                            <href>/mdr/sdtmig/3-2/datasets/CM/variables/CMSTDY</href>
                            <title>Study Day of Start of Medication</title>
                            <type>SDTM Dataset Variable</type>
                        </self>
                    </_links>
                    <core>Perm</core>
                    <description>Study day of start of medication relative to the sponsor-defined RFSTDTC.</description>
                    <label>Study Day of Start of Medication</label>
                    <name>CMSTDY</name>
                    <ordinal>29</ordinal>
                    <simpleDatatype>Num</simpleDatatype>
                </datasetVariable>
                <datasetVariable>
                    <_links>
                        <self>
                            <href>/mdr/sdtmig/3-2/datasets/CM/variables/CMENDY</href>
                            <title>Study Day of End of Medication</title>
                            <type>SDTM Dataset Variable</type>
                        </self>
                    </_links>
                    <core>Perm</core>
                    <description>Study day of end of medication relative to the sponsor-defined RFSTDTC.</description>
                    <label>Study Day of End of Medication</label>
                    <name>CMENDY</name>
                    <ordinal>30</ordinal>
                    <simpleDatatype>Num</simpleDatatype>
                </datasetVariable>
                <datasetVariable>
                    <_links>
                        <self>
                            <href>/mdr/sdtmig/3-2/datasets/CM/variables/CMDUR</href>
                            <title>Duration of Medication</title>
                            <type>SDTM Dataset Variable</type>
                        </self>
                    </_links>
                    <core>Perm</core>
                    <describedValueDomain>ISO 8601</describedValueDomain>
                    <description>Collected duration for a treatment episode. Used only if collected on the CRF and not derived from start and end date/times.</description>
                    <label>Duration of Medication</label>
                    <name>CMDUR</name>
                    <ordinal>31</ordinal>
                    <simpleDatatype>Char</simpleDatatype>
                </datasetVariable>
                <datasetVariable>
                    <_links>
                        <self>
                            <href>/mdr/sdtmig/3-2/datasets/CM/variables/CMSTRF</href>
                            <title>Start Relative to Reference Period</title>
                            <type>SDTM Dataset Variable</type>
                        </self>
                    </_links>
                    <core>Perm</core>
                    <description>Describes the start of the medication relative to sponsor-defined reference period. The sponsor-defined reference period is a continuous period of time defined by a discrete starting point and a discrete ending point (represented by RFSTDTC and RFENDTC in Demographics). If information such as "PRIOR", ONGOING or "CONTINUING" was collected, this information may be translated into CMSTRF.</description>
                    <label>Start Relative to Reference Period</label>
                    <name>CMSTRF</name>
                    <ordinal>32</ordinal>
                    <simpleDatatype>Char</simpleDatatype>
                </datasetVariable>
                <datasetVariable>
                    <_links>
                        <self>
                            <href>/mdr/sdtmig/3-2/datasets/CM/variables/CMENRF</href>
                            <title>End Relative to Reference Period</title>
                            <type>SDTM Dataset Variable</type>
                        </self>
                    </_links>
                    <core>Perm</core>
                    <description>Describes the end of the medication relative to the sponsor-defined reference period. The sponsor-defined reference period is a continuous period of time defined by a discrete starting point and a discrete ending point (represented by RFSTDTC and RFENDTC in Demographics). If information such as "PRIOR", "ONGOING, or "CONTINUING" was collected, this information may be translated into CMENRF.</description>
                    <label>End Relative to Reference Period</label>
                    <name>CMENRF</name>
                    <ordinal>33</ordinal>
                    <simpleDatatype>Char</simpleDatatype>
                </datasetVariable>
                <datasetVariable>
                    <_links>
                        <self>
                            <href>/mdr/sdtmig/3-2/datasets/CM/variables/CMSTRTPT</href>
                            <title>Start Relative to Reference Time Point</title>
                            <type>SDTM Dataset Variable</type>
                        </self>
                    </_links>
                    <core>Perm</core>
                    <description>Identifies the start of the medication as being before or after the reference time point defined by variable CMSTTPT.</description>
                    <label>Start Relative to Reference Time Point</label>
                    <name>CMSTRTPT</name>
                    <ordinal>34</ordinal>
                    <simpleDatatype>Char</simpleDatatype>
                </datasetVariable>
                <datasetVariable>
                    <_links>
                        <self>
                            <href>/mdr/sdtmig/3-2/datasets/CM/variables/CMSTTPT</href>
                            <title>Start Reference Time Point</title>
                            <type>SDTM Dataset Variable</type>
                        </self>
                    </_links>
                    <core>Perm</core>
                    <description>Description or date/time in ISO 8601 character format of the reference point referred to by CMSTRTPT. Examples: "2003-12-15" or "VISIT 1".</description>
                    <label>Start Reference Time Point</label>
                    <name>CMSTTPT</name>
                    <ordinal>35</ordinal>
                    <simpleDatatype>Char</simpleDatatype>
                </datasetVariable>
                <datasetVariable>
                    <_links>
                        <self>
                            <href>/mdr/sdtmig/3-2/datasets/CM/variables/CMENRTPT</href>
                            <title>End Relative to Reference Time Point</title>
                            <type>SDTM Dataset Variable</type>
                        </self>
                    </_links>
                    <core>Perm</core>
                    <description>Identifies the end of the medication as being before or after the reference time point defined by variable CMENTPT.</description>
                    <label>End Relative to Reference Time Point</label>
                    <name>CMENRTPT</name>
                    <ordinal>36</ordinal>
                    <simpleDatatype>Char</simpleDatatype>
                </datasetVariable>
                <datasetVariable>
                    <_links>
                        <self>
                            <href>/mdr/sdtmig/3-2/datasets/CM/variables/CMENTPT</href>
                            <title>End Reference Time Point</title>
                            <type>SDTM Dataset Variable</type>
                        </self>
                    </_links>
                    <core>Perm</core>
                    <description>Description or date/time in ISO 8601 character format of the reference point referred to by CMENRTPT. Examples: "2003-12-25" or "VISIT 2".</description>
                    <label>End Reference Time Point</label>
                    <name>CMENTPT</name>
                    <ordinal>37</ordinal>
                    <simpleDatatype>Char</simpleDatatype>
                </datasetVariable>
                <description>An interventions domain that contains concomitant and prior medications used by the subject, such as those given on an as needed basis or condition-appropriate medications. (Source: CDISC Controlled Terminology, DOMAIN, C49568, 2018-06-29)</description>
                <label>Concomitant Medications</label>
                <name>CM</name>
                <ordinal>5</ordinal>
            </dataset>
            <dataset>
                <_links>
                    <self>
                        <href>/mdr/sdtmig/3-2/datasets/PR</href>
                        <title>Procedures</title>
                        <type>SDTM Dataset</type>
                    </self>
                </_links>
                <datasetVariable>
                    <_links>
                        <self>
                            <href>/mdr/sdtmig/3-2/datasets/PR/variables/STUDYID</href>
                            <title>Study Identifier</title>
                            <type>SDTM Dataset Variable</type>
                        </self>
                    </_links>
                    <core>Req</core>
                    <description>Unique identifier for a study.</description>
                    <label>Study Identifier</label>
                    <name>STUDYID</name>
                    <ordinal>1</ordinal>
                    <simpleDatatype>Char</simpleDatatype>
                </datasetVariable>
                <datasetVariable>
                    <_links>
                        <self>
                            <href>/mdr/sdtmig/3-2/datasets/PR/variables/DOMAIN</href>
                            <title>Domain Abbreviation</title>
                            <type>SDTM Dataset Variable</type>
                        </self>
                    </_links>
                    <core>Req</core>
                    <description>Two-character abbreviation for the domain.</description>
                    <label>Domain Abbreviation</label>
                    <name>DOMAIN</name>
                    <ordinal>2</ordinal>
                    <simpleDatatype>Char</simpleDatatype>
                    <valueList>
                        <value>PR</value>
                    </valueList>
                </datasetVariable>
                <datasetVariable>
                    <_links>
                        <self>
                            <href>/mdr/sdtmig/3-2/datasets/PR/variables/USUBJID</href>
                            <title>Unique Subject Identifier</title>
                            <type>SDTM Dataset Variable</type>
                        </self>
                    </_links>
                    <core>Req</core>
                    <description>Identifier used to uniquely identify a subject across all studies for all applications or submissions involving the product.</description>
                    <label>Unique Subject Identifier</label>
                    <name>USUBJID</name>
                    <ordinal>3</ordinal>
                    <simpleDatatype>Char</simpleDatatype>
                </datasetVariable>
                <datasetVariable>
                    <_links>
                        <self>
                            <href>/mdr/sdtmig/3-2/datasets/PR/variables/PRSEQ</href>
                            <title>Sequence Number</title>
                            <type>SDTM Dataset Variable</type>
                        </self>
                    </_links>
                    <core>Req</core>
                    <description>Sequence number to ensure uniqueness of records within a dataset for a subject. Should be assigned to be in a consistent chronological order.</description>
                    <label>Sequence Number</label>
                    <name>PRSEQ</name>
                    <ordinal>4</ordinal>
                    <simpleDatatype>Num</simpleDatatype>
                </datasetVariable>
                <datasetVariable>
                    <_links>
                        <self>
                            <href>/mdr/sdtmig/3-2/datasets/PR/variables/PRGRPID</href>
                            <title>Group ID</title>
                            <type>SDTM Dataset Variable</type>
                        </self>
                    </_links>
                    <core>Perm</core>
                    <description>Used to link together a block of related records within a subject in a domain.</description>
                    <label>Group ID</label>
                    <name>PRGRPID</name>
                    <ordinal>5</ordinal>
                    <simpleDatatype>Char</simpleDatatype>
                </datasetVariable>
                <datasetVariable>
                    <_links>
                        <self>
                            <href>/mdr/sdtmig/3-2/datasets/PR/variables/PRSPID</href>
                            <title>Sponsor-Defined Identifier</title>
                            <type>SDTM Dataset Variable</type>
                        </self>
                    </_links>
                    <core>Perm</core>
                    <description>Sponsor-defined identifier. Example: pre-printed line identifier on a CRF or record identifier defined in the sponsor's operational database.</description>
                    <label>Sponsor-Defined Identifier</label>
                    <name>PRSPID</name>
                    <ordinal>6</ordinal>
                    <simpleDatatype>Char</simpleDatatype>
                </datasetVariable>
                <datasetVariable>
                    <_links>
                        <self>
                            <href>/mdr/sdtmig/3-2/datasets/PR/variables/PRLNKID</href>
                            <title>Link ID</title>
                            <type>SDTM Dataset Variable</type>
                        </self>
                    </_links>
                    <core>Perm</core>
                    <description>Used to facilitate identification of relationships between records.</description>
                    <label>Link ID</label>
                    <name>PRLNKID</name>
                    <ordinal>7</ordinal>
                    <simpleDatatype>Char</simpleDatatype>
                </datasetVariable>
                <datasetVariable>
                    <_links>
                        <self>
                            <href>/mdr/sdtmig/3-2/datasets/PR/variables/PRLNKGRP</href>
                            <title>Link Group ID</title>
                            <type>SDTM Dataset Variable</type>
                        </self>
                    </_links>
                    <description>Used to facilitate identification of relationships between records.</description>
                    <label>Link Group ID</label>
                    <name>PRLNKGRP</name>
                    <ordinal>8</ordinal>
                    <simpleDatatype>Char</simpleDatatype>
                </datasetVariable>
                <datasetVariable>
                    <_links>
                        <self>
                            <href>/mdr/sdtmig/3-2/datasets/PR/variables/PRTRT</href>
                            <title>Reported Name of Procedure</title>
                            <type>SDTM Dataset Variable</type>
                        </self>
                    </_links>
                    <core>Req</core>
                    <description>Name of procedure performed, either pre-printed or collected on a CRF.</description>
                    <label>Reported Name of Procedure</label>
                    <name>PRTRT</name>
                    <ordinal>9</ordinal>
                    <simpleDatatype>Char</simpleDatatype>
                </datasetVariable>
                <datasetVariable>
                    <_links>
                        <self>
                            <href>/mdr/sdtmig/3-2/datasets/PR/variables/PRDECOD</href>
                            <title>Standardized Procedure Name</title>
                            <type>SDTM Dataset Variable</type>
                        </self>
                    </_links>
                    <core>Perm</core>
                    <description>Standardized or dictionary-derived name of PRTRT. The sponsor is expected to provide the dictionary name and version used to map the terms in the define.xml external codelist attributes. If an intervention term does not have a decode value in the dictionary then PRDECOD will be null.</description>
                    <label>Standardized Procedure Name</label>
                    <name>PRDECOD</name>
                    <ordinal>10</ordinal>
                    <simpleDatatype>Char</simpleDatatype>
                </datasetVariable>
                <datasetVariable>
                    <_links>
                        <self>
                            <href>/mdr/sdtmig/3-2/datasets/PR/variables/PRCAT</href>
                            <title>Category</title>
                            <type>SDTM Dataset Variable</type>
                        </self>
                    </_links>
                    <core>Perm</core>
                    <description>Used to define a category of procedure values.</description>
                    <label>Category</label>
                    <name>PRCAT</name>
                    <ordinal>11</ordinal>
                    <simpleDatatype>Char</simpleDatatype>
                </datasetVariable>
                <datasetVariable>
                    <_links>
                        <self>
                            <href>/mdr/sdtmig/3-2/datasets/PR/variables/PRSCAT</href>
                            <title>Subcategory</title>
                            <type>SDTM Dataset Variable</type>
                        </self>
                    </_links>
                    <core>Perm</core>
                    <description>Used to define a further categorization of PRCAT values.</description>
                    <label>Subcategory</label>
                    <name>PRSCAT</name>
                    <ordinal>12</ordinal>
                    <simpleDatatype>Char</simpleDatatype>
                </datasetVariable>
                <datasetVariable>
                    <_links>
                        <self>
                            <href>/mdr/sdtmig/3-2/datasets/PR/variables/PRPRESP</href>
                            <title>Pre-specified</title>
                            <type>SDTM Dataset Variable</type>
                        </self>
                    </_links>
                    <core>Perm</core>
                    <description>Used when a specific procedure is pre-specified on a CRF. Values should be "Y" or null.</description>
                    <label>Pre-specified</label>
                    <name>PRPRESP</name>
                    <ordinal>13</ordinal>
                    <simpleDatatype>Char</simpleDatatype>
                </datasetVariable>
                <datasetVariable>
                    <_links>
                        <self>
                            <href>/mdr/sdtmig/3-2/datasets/PR/variables/PROCCUR</href>
                            <title>Occurrence</title>
                            <type>SDTM Dataset Variable</type>
                        </self>
                    </_links>
                    <core>Perm</core>
                    <description>Used to record whether a pre-specified procedure occurred when information about the occurrence of a specific procedure is solicited.</description>
                    <label>Occurrence</label>
                    <name>PROCCUR</name>
                    <ordinal>14</ordinal>
                    <simpleDatatype>Char</simpleDatatype>
                </datasetVariable>
                <datasetVariable>
                    <_links>
                        <self>
                            <href>/mdr/sdtmig/3-2/datasets/PR/variables/PRINDC</href>
                            <title>Indication</title>
                            <type>SDTM Dataset Variable</type>
                        </self>
                    </_links>
                    <core>Perm</core>
                    <description>Denotes the indication for the procedure (e.g., why the procedure was performed).</description>
                    <label>Indication</label>
                    <name>PRINDC</name>
                    <ordinal>15</ordinal>
                    <simpleDatatype>Char</simpleDatatype>
                </datasetVariable>
                <datasetVariable>
                    <_links>
                        <self>
                            <href>/mdr/sdtmig/3-2/datasets/PR/variables/PRDOSE</href>
                            <title>Dose</title>
                            <type>SDTM Dataset Variable</type>
                        </self>
                    </_links>
                    <core>Perm</core>
                    <description>Amount of PRTRT administered. Not populated when PRDOSTXT is populated.</description>
                    <label>Dose</label>
                    <name>PRDOSE</name>
                    <ordinal>16</ordinal>
                    <simpleDatatype>Num</simpleDatatype>
                </datasetVariable>
                <datasetVariable>
                    <_links>
                        <self>
                            <href>/mdr/sdtmig/3-2/datasets/PR/variables/PRDOSTXT</href>
                            <title>Dose Description</title>
                            <type>SDTM Dataset Variable</type>
                        </self>
                    </_links>
                    <core>Perm</core>
                    <description>Dosing information collected in text form. Examples: &lt;1, 200-400. Not populated when PRDOSE is populated.</description>
                    <label>Dose Description</label>
                    <name>PRDOSTXT</name>
                    <ordinal>17</ordinal>
                    <simpleDatatype>Char</simpleDatatype>
                </datasetVariable>
                <datasetVariable>
                    <_links>
                        <self>
                            <href>/mdr/sdtmig/3-2/datasets/PR/variables/PRDOSU</href>
                            <title>Dose Units</title>
                            <type>SDTM Dataset Variable</type>
                        </self>
                    </_links>
                    <core>Perm</core>
                    <description>Units for PRDOSE, PRDOSTOT, or PRDOSTXT.</description>
                    <label>Dose Units</label>
                    <name>PRDOSU</name>
                    <ordinal>18</ordinal>
                    <simpleDatatype>Char</simpleDatatype>
                </datasetVariable>
                <datasetVariable>
                    <_links>
                        <self>
                            <href>/mdr/sdtmig/3-2/datasets/PR/variables/PRDOSFRM</href>
                            <title>Dose Form</title>
                            <type>SDTM Dataset Variable</type>
                        </self>
                    </_links>
                    <core>Perm</core>
                    <description>Dose form for PRTRT.</description>
                    <label>Dose Form</label>
                    <name>PRDOSFRM</name>
                    <ordinal>19</ordinal>
                    <simpleDatatype>Char</simpleDatatype>
                </datasetVariable>
                <datasetVariable>
                    <_links>
                        <self>
                            <href>/mdr/sdtmig/3-2/datasets/PR/variables/PRDOSFRQ</href>
                            <title>Dosing Frequency per Interval</title>
                            <type>SDTM Dataset Variable</type>
                        </self>
                    </_links>
                    <core>Perm</core>
                    <description>Usually expressed as the number of doses given per a specific interval.</description>
                    <label>Dosing Frequency per Interval</label>
                    <name>PRDOSFRQ</name>
                    <ordinal>20</ordinal>
                    <simpleDatatype>Char</simpleDatatype>
                </datasetVariable>
                <datasetVariable>
                    <_links>
                        <self>
                            <href>/mdr/sdtmig/3-2/datasets/PR/variables/PRDOSRGM</href>
                            <title>Intended Dose Regimen</title>
                            <type>SDTM Dataset Variable</type>
                        </self>
                    </_links>
                    <core>Perm</core>
                    <description>Text description of the intended schedule or regimen for the procedure.</description>
                    <label>Intended Dose Regimen</label>
                    <name>PRDOSRGM</name>
                    <ordinal>21</ordinal>
                    <simpleDatatype>Char</simpleDatatype>
                </datasetVariable>
                <datasetVariable>
                    <_links>
                        <self>
                            <href>/mdr/sdtmig/3-2/datasets/PR/variables/PRROUTE</href>
                            <title>Route of Administration</title>
                            <type>SDTM Dataset Variable</type>
                        </self>
                    </_links>
                    <core>Perm</core>
                    <description>Route of administration for PRTRT.</description>
                    <label>Route of Administration</label>
                    <name>PRROUTE</name>
                    <ordinal>22</ordinal>
                    <simpleDatatype>Char</simpleDatatype>
                </datasetVariable>
                <datasetVariable>
                    <_links>
                        <self>
                            <href>/mdr/sdtmig/3-2/datasets/PR/variables/PRLOC</href>
                            <title>Location of Procedure</title>
                            <type>SDTM Dataset Variable</type>
                        </self>
                    </_links>
                    <core>Perm</core>
                    <description>Anatomical location of a procedure.</description>
                    <label>Location of Procedure</label>
                    <name>PRLOC</name>
                    <ordinal>23</ordinal>
                    <simpleDatatype>Char</simpleDatatype>
                </datasetVariable>
                <datasetVariable>
                    <_links>
                        <self>
                            <href>/mdr/sdtmig/3-2/datasets/PR/variables/PRLAT</href>
                            <title>Laterality</title>
                            <type>SDTM Dataset Variable</type>
                        </self>
                    </_links>
                    <core>Perm</core>
                    <description>Qualifier for anatomical location or specimen further detailing laterality.</description>
                    <label>Laterality</label>
                    <name>PRLAT</name>
                    <ordinal>24</ordinal>
                    <simpleDatatype>Char</simpleDatatype>
                </datasetVariable>
                <datasetVariable>
                    <_links>
                        <self>
                            <href>/mdr/sdtmig/3-2/datasets/PR/variables/PRDIR</href>
                            <title>Directionality</title>
                            <type>SDTM Dataset Variable</type>
                        </self>
                    </_links>
                    <core>Perm</core>
                    <description>Qualifier for anatomical location or specimen further detailing directionality.</description>
                    <label>Directionality</label>
                    <name>PRDIR</name>
                    <ordinal>25</ordinal>
                    <simpleDatatype>Char</simpleDatatype>
                </datasetVariable>
                <datasetVariable>
                    <_links>
                        <self>
                            <href>/mdr/sdtmig/3-2/datasets/PR/variables/PRPORTOT</href>
                            <title>Portion or Totality</title>
                            <type>SDTM Dataset Variable</type>
                        </self>
                    </_links>
                    <core>Perm</core>
                    <description>Qualifier for anatomical location or specimen further detailing the distribution, which means arrangement of, apportioning of.</description>
                    <label>Portion or Totality</label>
                    <name>PRPORTOT</name>
                    <ordinal>26</ordinal>
                    <simpleDatatype>Char</simpleDatatype>
                </datasetVariable>
                <datasetVariable>
                    <_links>
                        <self>
                            <href>/mdr/sdtmig/3-2/datasets/PR/variables/VISITNUM</href>
                            <title>Visit Number</title>
                            <type>SDTM Dataset Variable</type>
                        </self>
                    </_links>
                    <core>Perm</core>
                    <description>Clinical encounter number. Numeric version of VISIT, used for sorting.</description>
                    <label>Visit Number</label>
                    <name>VISITNUM</name>
                    <ordinal>27</ordinal>
                    <simpleDatatype>Num</simpleDatatype>
                </datasetVariable>
                <datasetVariable>
                    <_links>
                        <self>
                            <href>/mdr/sdtmig/3-2/datasets/PR/variables/VISIT</href>
                            <title>Visit Name</title>
                            <type>SDTM Dataset Variable</type>
                        </self>
                    </_links>
                    <core>Perm</core>
                    <description>Protocol-defined description of a clinical encounter.</description>
                    <label>Visit Name</label>
                    <name>VISIT</name>
                    <ordinal>28</ordinal>
                    <simpleDatatype>Char</simpleDatatype>
                </datasetVariable>
                <datasetVariable>
                    <_links>
                        <self>
                            <href>/mdr/sdtmig/3-2/datasets/PR/variables/VISITDY</href>
                            <title>Planned Study Day of Visit</title>
                            <type>SDTM Dataset Variable</type>
                        </self>
                    </_links>
                    <core>Perm</core>
                    <description>Planned study day of VISIT. Should be an integer.</description>
                    <label>Planned Study Day of Visit</label>
                    <name>VISITDY</name>
                    <ordinal>29</ordinal>
                    <simpleDatatype>Num</simpleDatatype>
                </datasetVariable>
                <datasetVariable>
                    <_links>
                        <self>
                            <href>/mdr/sdtmig/3-2/datasets/PR/variables/PRSTDTC</href>
                            <title>Start Date/Time of Procedure</title>
                            <type>SDTM Dataset Variable</type>
                        </self>
                    </_links>
                    <core>Exp</core>
                    <describedValueDomain>ISO 8601</describedValueDomain>
                    <description>Start date/time of the procedure represented in ISO 8601 character format.</description>
                    <label>Start Date/Time of Procedure</label>
                    <name>PRSTDTC</name>
                    <ordinal>30</ordinal>
                    <simpleDatatype>Char</simpleDatatype>
                </datasetVariable>
                <datasetVariable>
                    <_links>
                        <self>
                            <href>/mdr/sdtmig/3-2/datasets/PR/variables/PRENDTC</href>
                            <title>End Date/Time of Procedure</title>
                            <type>SDTM Dataset Variable</type>
                        </self>
                    </_links>
                    <core>Perm</core>
                    <describedValueDomain>ISO 8601</describedValueDomain>
                    <description>End date/time of the procedure represented in ISO 8601 character format.</description>
                    <label>End Date/Time of Procedure</label>
                    <name>PRENDTC</name>
                    <ordinal>31</ordinal>
                    <simpleDatatype>Char</simpleDatatype>
                </datasetVariable>
                <datasetVariable>
                    <_links>
                        <self>
                            <href>/mdr/sdtmig/3-2/datasets/PR/variables/PRSTDY</href>
                            <title>Study Day of Start of Procedure</title>
                            <type>SDTM Dataset Variable</type>
                        </self>
                    </_links>
                    <core>Perm</core>
                    <description>Study day of start of procedure expressed in integer days relative to the sponsor-defined RFSTDTC in Demographics.</description>
                    <label>Study Day of Start of Procedure</label>
                    <name>PRSTDY</name>
                    <ordinal>32</ordinal>
                    <simpleDatatype>Num</simpleDatatype>
                </datasetVariable>
                <datasetVariable>
                    <_links>
                        <self>
                            <href>/mdr/sdtmig/3-2/datasets/PR/variables/PRENDY</href>
                            <title>Study Day of End of Procedure</title>
                            <type>SDTM Dataset Variable</type>
                        </self>
                    </_links>
                    <core>Perm</core>
                    <description>Study day of end of procedure expressed in integer days relative to the sponsor-defined RFSTDTC in Demographics.</description>
                    <label>Study Day of End of Procedure</label>
                    <name>PRENDY</name>
                    <ordinal>33</ordinal>
                    <simpleDatatype>Num</simpleDatatype>
                </datasetVariable>
                <datasetVariable>
                    <_links>
                        <self>
                            <href>/mdr/sdtmig/3-2/datasets/PR/variables/PRDUR</href>
                            <title>Duration of Procedure</title>
                            <type>SDTM Dataset Variable</type>
                        </self>
                    </_links>
                    <core>Perm</core>
                    <describedValueDomain>ISO 8601</describedValueDomain>
                    <description>Collected duration of a procedure represented in ISO 8601 character format. Used only if collected on the CRF and not derived from start and end date/times.</description>
                    <label>Duration of Procedure</label>
                    <name>PRDUR</name>
                    <ordinal>34</ordinal>
                    <simpleDatatype>Char</simpleDatatype>
                </datasetVariable>
                <datasetVariable>
                    <_links>
                        <self>
                            <href>/mdr/sdtmig/3-2/datasets/PR/variables/PRTPT</href>
                            <title>Planned Time Point Name</title>
                            <type>SDTM Dataset Variable</type>
                        </self>
                    </_links>
                    <core>Perm</core>
                    <description>Text description of time when a procedure should be performed. This may be represented as an elapsed time relative to a fixed reference point, such as time of last dose. See PRTPTNUM and PRTPTREF.</description>
                    <label>Planned Time Point Name</label>
                    <name>PRTPT</name>
                    <ordinal>35</ordinal>
                    <simpleDatatype>Char</simpleDatatype>
                </datasetVariable>
                <datasetVariable>
                    <_links>
                        <self>
                            <href>/mdr/sdtmig/3-2/datasets/PR/variables/PRTPTNUM</href>
                            <title>Planned Time Point Number</title>
                            <type>SDTM Dataset Variable</type>
                        </self>
                    </_links>
                    <core>Perm</core>
                    <description>Numerical version of planned time point used in sorting.</description>
                    <label>Planned Time Point Number</label>
                    <name>PRTPTNUM</name>
                    <ordinal>36</ordinal>
                    <simpleDatatype>Num</simpleDatatype>
                </datasetVariable>
                <datasetVariable>
                    <_links>
                        <self>
                            <href>/mdr/sdtmig/3-2/datasets/PR/variables/PRELTM</href>
                            <title>Planned Elapsed Time from Time Point Ref</title>
                            <type>SDTM Dataset Variable</type>
                        </self>
                    </_links>
                    <core>Perm</core>
                    <describedValueDomain>ISO 8601</describedValueDomain>
                    <description>Planned elapsed time in ISO 8601 format relative to a planned fixed reference (PRTPTREF). This variable is useful where there are repetitive measures. Not a clock time or a date/time variable, but an interval, represented as ISO duration.</description>
                    <label>Planned Elapsed Time from Time Point Ref</label>
                    <name>PRELTM</name>
                    <ordinal>37</ordinal>
                    <simpleDatatype>Char</simpleDatatype>
                </datasetVariable>
                <datasetVariable>
                    <_links>
                        <self>
                            <href>/mdr/sdtmig/3-2/datasets/PR/variables/PRTPTREF</href>
                            <title>Time Point Reference</title>
                            <type>SDTM Dataset Variable</type>
                        </self>
                    </_links>
                    <core>Perm</core>
                    <description>Description of the fixed reference point referred to by PRELTM, PRTPTNUM, and PRTPT.</description>
                    <label>Time Point Reference</label>
                    <name>PRTPTREF</name>
                    <ordinal>38</ordinal>
                    <simpleDatatype>Char</simpleDatatype>
                </datasetVariable>
                <datasetVariable>
                    <_links>
                        <self>
                            <href>/mdr/sdtmig/3-2/datasets/PR/variables/PRRFTDTC</href>
                            <title>Date/Time of Reference Time Point</title>
                            <type>SDTM Dataset Variable</type>
                        </self>
                    </_links>
                    <core>Perm</core>
                    <describedValueDomain>ISO 8601</describedValueDomain>
                    <description>Date/time for a fixed reference time point defined by PRTRTREF in ISO 8601 character format.</description>
                    <label>Date/Time of Reference Time Point</label>
                    <name>PRRFTDTC</name>
                    <ordinal>39</ordinal>
                    <simpleDatatype>Char</simpleDatatype>
                </datasetVariable>
                <datasetVariable>
                    <_links>
                        <self>
                            <href>/mdr/sdtmig/3-2/datasets/PR/variables/PRSTRTPT</href>
                            <title>Start Relative to Reference Time Point</title>
                            <type>SDTM Dataset Variable</type>
                        </self>
                    </_links>
                    <core>Perm</core>
                    <description>Identifies the start of the observation as being before or after the sponsor-defined reference time point defined by variable PRSTTPT.</description>
                    <label>Start Relative to Reference Time Point</label>
                    <name>PRSTRTPT</name>
                    <ordinal>40</ordinal>
                    <simpleDatatype>Char</simpleDatatype>
                    <valueList>
                        <value>AFTER</value>
                        <value>BEFORE</value>
                        <value>COINCIDENT</value>
                        <value>U</value>
                    </valueList>
                </datasetVariable>
                <datasetVariable>
                    <_links>
                        <self>
                            <href>/mdr/sdtmig/3-2/datasets/PR/variables/PRSTTPT</href>
                            <title>Start Reference Time Point</title>
                            <type>SDTM Dataset Variable</type>
                        </self>
                    </_links>
                    <core>Perm</core>
                    <description>Description or date/time in ISO 8601 character format of the sponsor-defined reference point referred to by PRSTRTPT. Examples: "2003-12-15" or "VISIT 1".</description>
                    <label>Start Reference Time Point</label>
                    <name>PRSTTPT</name>
                    <ordinal>41</ordinal>
                    <simpleDatatype>Char</simpleDatatype>
                </datasetVariable>
                <datasetVariable>
                    <_links>
                        <self>
                            <href>/mdr/sdtmig/3-2/datasets/PR/variables/PRENRTPT</href>
                            <title>End Relative to Reference Time Point</title>
                            <type>SDTM Dataset Variable</type>
                        </self>
                    </_links>
                    <core>Perm</core>
                    <description>Identifies the end of the observation as being before or after the sponsor-defined reference time point defined by variable PRENTPT.</description>
                    <label>End Relative to Reference Time Point</label>
                    <name>PRENRTPT</name>
                    <ordinal>42</ordinal>
                    <simpleDatatype>Char</simpleDatatype>
                    <valueList>
                        <value>AFTER</value>
                        <value>BEFORE</value>
                        <value>COINCIDENT</value>
                        <value>ONGOING</value>
                        <value>U</value>
                    </valueList>
                </datasetVariable>
                <datasetVariable>
                    <_links>
                        <self>
                            <href>/mdr/sdtmig/3-2/datasets/PR/variables/PRENTPT</href>
                            <title>End Reference Time Point</title>
                            <type>SDTM Dataset Variable</type>
                        </self>
                    </_links>
                    <core>Perm</core>
                    <description>Description or date/time in ISO 8601 character format of the sponsor-defined reference point referred to by PRENRTPT. Examples: "2003-12-25" or "VISIT 2".</description>
                    <label>End Reference Time Point</label>
                    <name>PRENTPT</name>
                    <ordinal>43</ordinal>
                    <simpleDatatype>Char</simpleDatatype>
                </datasetVariable>
                <description>An interventions domain that contains interventional activity intended to have diagnostic, preventive, therapeutic, or palliative effects. (Source: CDISC Controlled Terminology, DOMAIN, C102700, 2018-06-29)</description>
                <label>Procedures</label>
                <name>PR</name>
                <ordinal>8</ordinal>
            </dataset>
            <description>This SDTM class captures investigational, therapeutic and other treatments that are administered to the subject (with some actual or expected physiological effect) either as specified by the study protocol (e.g., exposure to study drug), coincident with the study assessment period (e.g., concomitant medications), or self-administered by the subject (such as use of alcohol, tobacco, or caffeine). (Source: CDISC Controlled Terminology, GNRLOBSC, C103374, 2018-06-29)</description>
            <label>Interventions Observation Class</label>
            <name>Interventions</name>
            <ordinal>3</ordinal>
        </class>
        <class>
            <_links>
                <self>
                    <href>/mdr/sdtmig/3-2/classes/Events</href>
                    <title>Events Observation Class</title>
                    <type>Class</type>
                </self>
            </_links>
            <dataset>
                <_links>
                    <self>
                        <href>/mdr/sdtmig/3-2/datasets/AE</href>
                        <title>Adverse Events</title>
                        <type>SDTM Dataset</type>
                    </self>
                </_links>
                <datasetVariable>
                    <_links>
                        <self>
                            <href>/mdr/sdtmig/3-2/datasets/AE/variables/STUDYID</href>
                            <title>Study Identifier</title>
                            <type>SDTM Dataset Variable</type>
                        </self>
                    </_links>
                    <core>Req</core>
                    <description>Unique identifier for a study.</description>
                    <label>Study Identifier</label>
                    <name>STUDYID</name>
                    <ordinal>1</ordinal>
                    <simpleDatatype>Char</simpleDatatype>
                </datasetVariable>
                <datasetVariable>
                    <_links>
                        <self>
                            <href>/mdr/sdtmig/3-2/datasets/AE/variables/DOMAIN</href>
                            <title>Domain Abbreviation</title>
                            <type>SDTM Dataset Variable</type>
                        </self>
                    </_links>
                    <core>Req</core>
                    <description>Two-character abbreviation for the domain.</description>
                    <label>Domain Abbreviation</label>
                    <name>DOMAIN</name>
                    <ordinal>2</ordinal>
                    <simpleDatatype>Char</simpleDatatype>
                    <valueList>
                        <value>AE</value>
                    </valueList>
                </datasetVariable>
                <datasetVariable>
                    <_links>
                        <self>
                            <href>/mdr/sdtmig/3-2/datasets/AE/variables/USUBJID</href>
                            <title>Unique Subject Identifier</title>
                            <type>SDTM Dataset Variable</type>
                        </self>
                    </_links>
                    <core>Req</core>
                    <description>Identifier used to uniquely identify a subject across all studies for all applications or submissions involving the product.</description>
                    <label>Unique Subject Identifier</label>
                    <name>USUBJID</name>
                    <ordinal>3</ordinal>
                    <simpleDatatype>Char</simpleDatatype>
                </datasetVariable>
                <datasetVariable>
                    <_links>
                        <self>
                            <href>/mdr/sdtmig/3-2/datasets/AE/variables/AESEQ</href>
                            <title>Sequence Number</title>
                            <type>SDTM Dataset Variable</type>
                        </self>
                    </_links>
                    <core>Req</core>
                    <description>Sequence Number given to ensure uniqueness of subject records within a domain. May be any valid number.</description>
                    <label>Sequence Number</label>
                    <name>AESEQ</name>
                    <ordinal>4</ordinal>
                    <simpleDatatype>Num</simpleDatatype>
                </datasetVariable>
                <datasetVariable>
                    <_links>
                        <self>
                            <href>/mdr/sdtmig/3-2/datasets/AE/variables/AEGRPID</href>
                            <title>Group ID</title>
                            <type>SDTM Dataset Variable</type>
                        </self>
                    </_links>
                    <core>Perm</core>
                    <description>Used to tie together a block of related records in a single domain for a subject.</description>
                    <label>Group ID</label>
                    <name>AEGRPID</name>
                    <ordinal>5</ordinal>
                    <simpleDatatype>Char</simpleDatatype>
                </datasetVariable>
                <datasetVariable>
                    <_links>
                        <self>
                            <href>/mdr/sdtmig/3-2/datasets/AE/variables/AEREFID</href>
                            <title>Reference ID</title>
                            <type>SDTM Dataset Variable</type>
                        </self>
                    </_links>
                    <core>Perm</core>
                    <description>Internal or external identifier such as a serial number on an SAE reporting form.</description>
                    <label>Reference ID</label>
                    <name>AEREFID</name>
                    <ordinal>6</ordinal>
                    <simpleDatatype>Char</simpleDatatype>
                </datasetVariable>
                <datasetVariable>
                    <_links>
                        <self>
                            <href>/mdr/sdtmig/3-2/datasets/AE/variables/AESPID</href>
                            <title>Sponsor-Defined Identifier</title>
                            <type>SDTM Dataset Variable</type>
                        </self>
                    </_links>
                    <core>Perm</core>
                    <description>Sponsor-defined identifier. It may be pre-printed on the CRF as an explicit line identifier or defined in the sponsor's operational database. Example: Line number on an Adverse Events page.</description>
                    <label>Sponsor-Defined Identifier</label>
                    <name>AESPID</name>
                    <ordinal>7</ordinal>
                    <simpleDatatype>Char</simpleDatatype>
                </datasetVariable>
                <datasetVariable>
                    <_links>
                        <self>
                            <href>/mdr/sdtmig/3-2/datasets/AE/variables/AETERM</href>
                            <title>Reported Term for the Adverse Event</title>
                            <type>SDTM Dataset Variable</type>
                        </self>
                    </_links>
                    <core>Req</core>
                    <description>Verbatim name of the event.</description>
                    <label>Reported Term for the Adverse Event</label>
                    <name>AETERM</name>
                    <ordinal>8</ordinal>
                    <simpleDatatype>Char</simpleDatatype>
                </datasetVariable>
                <datasetVariable>
                    <_links>
                        <self>
                            <href>/mdr/sdtmig/3-2/datasets/AE/variables/AEMODIFY</href>
                            <title>Modified Reported Term</title>
                            <type>SDTM Dataset Variable</type>
                        </self>
                    </_links>
                    <core>Perm</core>
                    <description>If AETERM is modified to facilitate coding, then AEMODIFY will contain the modified text.</description>
                    <label>Modified Reported Term</label>
                    <name>AEMODIFY</name>
                    <ordinal>9</ordinal>
                    <simpleDatatype>Char</simpleDatatype>
                </datasetVariable>
                <datasetVariable>
                    <_links>
                        <self>
                            <href>/mdr/sdtmig/3-2/datasets/AE/variables/AELLT</href>
                            <title>Lowest Level Term</title>
                            <type>SDTM Dataset Variable</type>
                        </self>
                    </_links>
                    <core>Exp</core>
                    <describedValueDomain>MedDRA</describedValueDomain>
                    <description>Dictionary-derived text description of the Lowest Level Term.</description>
                    <label>Lowest Level Term</label>
                    <name>AELLT</name>
                    <ordinal>10</ordinal>
                    <simpleDatatype>Char</simpleDatatype>
                </datasetVariable>
                <datasetVariable>
                    <_links>
                        <self>
                            <href>/mdr/sdtmig/3-2/datasets/AE/variables/AELLTCD</href>
                            <title>Lowest Level Term Code</title>
                            <type>SDTM Dataset Variable</type>
                        </self>
                    </_links>
                    <core>Exp</core>
                    <describedValueDomain>MedDRA</describedValueDomain>
                    <description>Dictionary-derived code for the Lowest Level Term.</description>
                    <label>Lowest Level Term Code</label>
                    <name>AELLTCD</name>
                    <ordinal>11</ordinal>
                    <simpleDatatype>Num</simpleDatatype>
                </datasetVariable>
                <datasetVariable>
                    <_links>
                        <self>
                            <href>/mdr/sdtmig/3-2/datasets/AE/variables/AEDECOD</href>
                            <title>Dictionary-Derived Term</title>
                            <type>SDTM Dataset Variable</type>
                        </self>
                    </_links>
                    <core>Req</core>
                    <describedValueDomain>MedDRA</describedValueDomain>
                    <description>Dictionary-derived text description of AETERM or AEMODIFY. Equivalent to the Preferred Term (PT in MedDRA). The sponsor is expected to provide the dictionary name and version used to map the terms utilizing the define.xml external codelist attributes.</description>
                    <label>Dictionary-Derived Term</label>
                    <name>AEDECOD</name>
                    <ordinal>12</ordinal>
                    <simpleDatatype>Char</simpleDatatype>
                </datasetVariable>
                <datasetVariable>
                    <_links>
                        <self>
                            <href>/mdr/sdtmig/3-2/datasets/AE/variables/AEPTCD</href>
                            <title>Preferred Term Code</title>
                            <type>SDTM Dataset Variable</type>
                        </self>
                    </_links>
                    <core>Exp</core>
                    <describedValueDomain>MedDRA</describedValueDomain>
                    <description>Dictionary-derived code for the Preferred Term.</description>
                    <label>Preferred Term Code</label>
                    <name>AEPTCD</name>
                    <ordinal>13</ordinal>
                    <simpleDatatype>Num</simpleDatatype>
                </datasetVariable>
                <datasetVariable>
                    <_links>
                        <self>
                            <href>/mdr/sdtmig/3-2/datasets/AE/variables/AEHLT</href>
                            <title>High Level Term</title>
                            <type>SDTM Dataset Variable</type>
                        </self>
                    </_links>
                    <core>Exp</core>
                    <describedValueDomain>MedDRA</describedValueDomain>
                    <description>Dictionary-derived text description of the High Level Term for the primary System Organ Class.</description>
                    <label>High Level Term</label>
                    <name>AEHLT</name>
                    <ordinal>14</ordinal>
                    <simpleDatatype>Char</simpleDatatype>
                </datasetVariable>
                <datasetVariable>
                    <_links>
                        <self>
                            <href>/mdr/sdtmig/3-2/datasets/AE/variables/AEHLTCD</href>
                            <title>High Level Term Code</title>
                            <type>SDTM Dataset Variable</type>
                        </self>
                    </_links>
                    <core>Exp</core>
                    <describedValueDomain>MedDRA</describedValueDomain>
                    <description>Dictionary-derived code for the High Level Term for the primary System Organ Class.</description>
                    <label>High Level Term Code</label>
                    <name>AEHLTCD</name>
                    <ordinal>15</ordinal>
                    <simpleDatatype>Num</simpleDatatype>
                </datasetVariable>
                <datasetVariable>
                    <_links>
                        <self>
                            <href>/mdr/sdtmig/3-2/datasets/AE/variables/AEHLGT</href>
                            <title>High Level Group Term</title>
                            <type>SDTM Dataset Variable</type>
                        </self>
                    </_links>
                    <core>Exp</core>
                    <describedValueDomain>MedDRA</describedValueDomain>
                    <description>Dictionary-derived text description of the High Level Group Term for the primary System Organ Class.</description>
                    <label>High Level Group Term</label>
                    <name>AEHLGT</name>
                    <ordinal>16</ordinal>
                    <simpleDatatype>Char</simpleDatatype>
                </datasetVariable>
                <datasetVariable>
                    <_links>
                        <self>
                            <href>/mdr/sdtmig/3-2/datasets/AE/variables/AEHLGTCD</href>
                            <title>High Level Group Term Code</title>
                            <type>SDTM Dataset Variable</type>
                        </self>
                    </_links>
                    <core>Exp</core>
                    <describedValueDomain>MedDRA</describedValueDomain>
                    <description>Dictionary-derived code for the High Level Group Term for the primary System Organ Class.</description>
                    <label>High Level Group Term Code</label>
                    <name>AEHLGTCD</name>
                    <ordinal>17</ordinal>
                    <simpleDatatype>Num</simpleDatatype>
                </datasetVariable>
                <datasetVariable>
                    <_links>
                        <self>
                            <href>/mdr/sdtmig/3-2/datasets/AE/variables/AECAT</href>
                            <title>Category for Adverse Event</title>
                            <type>SDTM Dataset Variable</type>
                        </self>
                    </_links>
                    <core>Perm</core>
                    <description>Used to define a category of related records. Example: BLEEDING, NEUROPSYCHIATRIC.</description>
                    <label>Category for Adverse Event</label>
                    <name>AECAT</name>
                    <ordinal>18</ordinal>
                    <simpleDatatype>Char</simpleDatatype>
                </datasetVariable>
                <datasetVariable>
                    <_links>
                        <self>
                            <href>/mdr/sdtmig/3-2/datasets/AE/variables/AESCAT</href>
                            <title>Subcategory for Adverse Event</title>
                            <type>SDTM Dataset Variable</type>
                        </self>
                    </_links>
                    <core>Perm</core>
                    <description>A further categorization of adverse event. Example: NEUROLOGIC.</description>
                    <label>Subcategory for Adverse Event</label>
                    <name>AESCAT</name>
                    <ordinal>19</ordinal>
                    <simpleDatatype>Char</simpleDatatype>
                </datasetVariable>
                <datasetVariable>
                    <_links>
                        <self>
                            <href>/mdr/sdtmig/3-2/datasets/AE/variables/AEPRESP</href>
                            <title>Pre-Specified Adverse Event</title>
                            <type>SDTM Dataset Variable</type>
                        </self>
                    </_links>
                    <core>Perm</core>
                    <description>A value of "Y" indicates that this adverse event was pre-specified on the CRF. Values are null for spontaneously reported events (i.e., those collected as free-text verbatim terms)</description>
                    <label>Pre-Specified Adverse Event</label>
                    <name>AEPRESP</name>
                    <ordinal>20</ordinal>
                    <simpleDatatype>Char</simpleDatatype>
                </datasetVariable>
                <datasetVariable>
                    <_links>
                        <self>
                            <href>/mdr/sdtmig/3-2/datasets/AE/variables/AEBODSYS</href>
                            <title>Body System or Organ Class</title>
                            <type>SDTM Dataset Variable</type>
                        </self>
                    </_links>
                    <core>Exp</core>
                    <description>Dictionary derived. Body system or organ class used by the sponsor from the coding dictionary (e.g., MedDRA). When using a multi-axial dictionary such as MedDRA, this should contain the SOC used for the sponsor's analyses and summary tables which may not necessarily be the primary SOC.</description>
                    <label>Body System or Organ Class</label>
                    <name>AEBODSYS</name>
                    <ordinal>21</ordinal>
                    <simpleDatatype>Char</simpleDatatype>
                </datasetVariable>
                <datasetVariable>
                    <_links>
                        <self>
                            <href>/mdr/sdtmig/3-2/datasets/AE/variables/AEBDSYCD</href>
                            <title>Body System or Organ Class Code</title>
                            <type>SDTM Dataset Variable</type>
                        </self>
                    </_links>
                    <core>Exp</core>
                    <describedValueDomain>MedDRA</describedValueDomain>
                    <description>Dictionary derived. Code for the body system or organ class used by the sponsor. When using a multi-axial dictionary such as MedDRA, this should contain the SOC used for the sponsor's analyses and summary tables, which may not necessarily be the primary SOC.</description>
                    <label>Body System or Organ Class Code</label>
                    <name>AEBDSYCD</name>
                    <ordinal>22</ordinal>
                    <simpleDatatype>Num</simpleDatatype>
                </datasetVariable>
                <datasetVariable>
                    <_links>
                        <self>
                            <href>/mdr/sdtmig/3-2/datasets/AE/variables/AESOC</href>
                            <title>Primary System Organ Class</title>
                            <type>SDTM Dataset Variable</type>
                        </self>
                    </_links>
                    <core>Exp</core>
                    <describedValueDomain>MedDRA</describedValueDomain>
                    <description>Dictionary-derived text description of the primary System Organ Class. Will be the same as AEBODSYS if the primary SOC was used for analysis.</description>
                    <label>Primary System Organ Class</label>
                    <name>AESOC</name>
                    <ordinal>23</ordinal>
                    <simpleDatatype>Char</simpleDatatype>
                </datasetVariable>
                <datasetVariable>
                    <_links>
                        <self>
                            <href>/mdr/sdtmig/3-2/datasets/AE/variables/AESOCCD</href>
                            <title>Primary System Organ Class Code</title>
                            <type>SDTM Dataset Variable</type>
                        </self>
                    </_links>
                    <core>Exp</core>
                    <describedValueDomain>MedDRA</describedValueDomain>
                    <description>Dictionary-derived code for the primary System Organ Class. Will be the same as AEBDSYCD if the primary SOC was used for analysis.</description>
                    <label>Primary System Organ Class Code</label>
                    <name>AESOCCD</name>
                    <ordinal>24</ordinal>
                    <simpleDatatype>Num</simpleDatatype>
                </datasetVariable>
                <datasetVariable>
                    <_links>
                        <self>
                            <href>/mdr/sdtmig/3-2/datasets/AE/variables/AELOC</href>
                            <title>Location of Event</title>
                            <type>SDTM Dataset Variable</type>
                        </self>
                    </_links>
                    <core>Perm</core>
                    <description>Describes anatomical location relevant for the event (e.g., ARM for skin rash).</description>
                    <label>Location of Event</label>
                    <name>AELOC</name>
                    <ordinal>25</ordinal>
                    <simpleDatatype>Char</simpleDatatype>
                </datasetVariable>
                <datasetVariable>
                    <_links>
                        <self>
                            <href>/mdr/sdtmig/3-2/datasets/AE/variables/AESEV</href>
                            <title>Severity/Intensity</title>
                            <type>SDTM Dataset Variable</type>
                        </self>
                    </_links>
                    <core>Perm</core>
                    <description>The severity or intensity of the event. Examples: MILD, MODERATE, SEVERE.</description>
                    <label>Severity/Intensity</label>
                    <name>AESEV</name>
                    <ordinal>26</ordinal>
                    <simpleDatatype>Char</simpleDatatype>
                </datasetVariable>
                <datasetVariable>
                    <_links>
                        <self>
                            <href>/mdr/sdtmig/3-2/datasets/AE/variables/AESER</href>
                            <title>Serious Event</title>
                            <type>SDTM Dataset Variable</type>
                        </self>
                    </_links>
                    <core>Exp</core>
                    <description>Is this a serious event?</description>
                    <label>Serious Event</label>
                    <name>AESER</name>
                    <ordinal>27</ordinal>
                    <simpleDatatype>Char</simpleDatatype>
                </datasetVariable>
                <datasetVariable>
                    <_links>
                        <self>
                            <href>/mdr/sdtmig/3-2/datasets/AE/variables/AEACN</href>
                            <title>Action Taken with Study Treatment</title>
                            <type>SDTM Dataset Variable</type>
                        </self>
                    </_links>
                    <core>Exp</core>
                    <description>Describes changes to the study treatment as a result of the event. AEACN is specifically for the relationship to study treatment. AEACNOTH is for actions unrelated to dose adjustments of study treatment. Examples of AEACN values include ICH E2B values: DRUG WITHDRAWN, DOSE REDUCED, DOSE INCREASED, DOSE NOT CHANGED, UNKNOWN or NOT APPLICABLE.</description>
                    <label>Action Taken with Study Treatment</label>
                    <name>AEACN</name>
                    <ordinal>28</ordinal>
                    <simpleDatatype>Char</simpleDatatype>
                </datasetVariable>
                <datasetVariable>
                    <_links>
                        <self>
                            <href>/mdr/sdtmig/3-2/datasets/AE/variables/AEACNOTH</href>
                            <title>Other Action Taken</title>
                            <type>SDTM Dataset Variable</type>
                        </self>
                    </_links>
                    <core>Perm</core>
                    <description>Describes other actions taken as a result of the event that are unrelated to dose adjustments of study treatment. Usually reported as free text. Example: "TREATMENT UNBLINDED. PRIMARY CARE PHYSICIAN NOTIFIED."</description>
                    <label>Other Action Taken</label>
                    <name>AEACNOTH</name>
                    <ordinal>29</ordinal>
                    <simpleDatatype>Char</simpleDatatype>
                </datasetVariable>
                <datasetVariable>
                    <_links>
                        <self>
                            <href>/mdr/sdtmig/3-2/datasets/AE/variables/AEREL</href>
                            <title>Causality</title>
                            <type>SDTM Dataset Variable</type>
                        </self>
                    </_links>
                    <core>Exp</core>
                    <description>Records the investigator's opinion as to the causality of the event to the treatment. ICH E2A and E2B examples include NOT RELATED, UNLIKELY RELATED, POSSIBLY RELATED, RELATED. Controlled Terminology may be defined in the future. Check with regulatory authority for population of this variable.</description>
                    <label>Causality</label>
                    <name>AEREL</name>
                    <ordinal>30</ordinal>
                    <simpleDatatype>Char</simpleDatatype>
                </datasetVariable>
                <datasetVariable>
                    <_links>
                        <self>
                            <href>/mdr/sdtmig/3-2/datasets/AE/variables/AERELNST</href>
                            <title>Relationship to Non-Study Treatment</title>
                            <type>SDTM Dataset Variable</type>
                        </self>
                    </_links>
                    <core>Perm</core>
                    <description>Records the investigator's opinion as to whether the event may have been due to a treatment other than study drug. May be reported as free text. Example: "MORE LIKELY RELATED TO ASPIRIN USE.".</description>
                    <label>Relationship to Non-Study Treatment</label>
                    <name>AERELNST</name>
                    <ordinal>31</ordinal>
                    <simpleDatatype>Char</simpleDatatype>
                </datasetVariable>
                <datasetVariable>
                    <_links>
                        <self>
                            <href>/mdr/sdtmig/3-2/datasets/AE/variables/AEPATT</href>
                            <title>Pattern of Adverse Event</title>
                            <type>SDTM Dataset Variable</type>
                        </self>
                    </_links>
                    <core>Perm</core>
                    <description>Used to indicate the pattern of the event over time. Examples: INTERMITTENT, CONTINUOUS, SINGLE EVENT.</description>
                    <label>Pattern of Adverse Event</label>
                    <name>AEPATT</name>
                    <ordinal>32</ordinal>
                    <simpleDatatype>Char</simpleDatatype>
                </datasetVariable>
                <datasetVariable>
                    <_links>
                        <self>
                            <href>/mdr/sdtmig/3-2/datasets/AE/variables/AEOUT</href>
                            <title>Outcome of Adverse Event</title>
                            <type>SDTM Dataset Variable</type>
                        </self>
                    </_links>
                    <core>Perm</core>
                    <description>Description of the outcome of an event.</description>
                    <label>Outcome of Adverse Event</label>
                    <name>AEOUT</name>
                    <ordinal>33</ordinal>
                    <simpleDatatype>Char</simpleDatatype>
                </datasetVariable>
                <datasetVariable>
                    <_links>
                        <self>
                            <href>/mdr/sdtmig/3-2/datasets/AE/variables/AESCAN</href>
                            <title>Involves Cancer</title>
                            <type>SDTM Dataset Variable</type>
                        </self>
                    </_links>
                    <core>Perm</core>
                    <description>Was the serious event associated with the development of cancer?</description>
                    <label>Involves Cancer</label>
                    <name>AESCAN</name>
                    <ordinal>34</ordinal>
                    <simpleDatatype>Char</simpleDatatype>
                </datasetVariable>
                <datasetVariable>
                    <_links>
                        <self>
                            <href>/mdr/sdtmig/3-2/datasets/AE/variables/AESCONG</href>
                            <title>Congenital Anomaly or Birth Defect</title>
                            <type>SDTM Dataset Variable</type>
                        </self>
                    </_links>
                    <core>Perm</core>
                    <description>Was the serious event associated with congenital anomaly or birth defect?</description>
                    <label>Congenital Anomaly or Birth Defect</label>
                    <name>AESCONG</name>
                    <ordinal>35</ordinal>
                    <simpleDatatype>Char</simpleDatatype>
                </datasetVariable>
                <datasetVariable>
                    <_links>
                        <self>
                            <href>/mdr/sdtmig/3-2/datasets/AE/variables/AESDISAB</href>
                            <title>Persist or Signif Disability/Incapacity</title>
                            <type>SDTM Dataset Variable</type>
                        </self>
                    </_links>
                    <core>Perm</core>
                    <description>Did the serious event result in persistent or significant disability/incapacity?</description>
                    <label>Persist or Signif Disability/Incapacity</label>
                    <name>AESDISAB</name>
                    <ordinal>36</ordinal>
                    <simpleDatatype>Char</simpleDatatype>
                </datasetVariable>
                <datasetVariable>
                    <_links>
                        <self>
                            <href>/mdr/sdtmig/3-2/datasets/AE/variables/AESDTH</href>
                            <title>Results in Death</title>
                            <type>SDTM Dataset Variable</type>
                        </self>
                    </_links>
                    <core>Perm</core>
                    <description>Did the serious event result in death?</description>
                    <label>Results in Death</label>
                    <name>AESDTH</name>
                    <ordinal>37</ordinal>
                    <simpleDatatype>Char</simpleDatatype>
                </datasetVariable>
                <datasetVariable>
                    <_links>
                        <self>
                            <href>/mdr/sdtmig/3-2/datasets/AE/variables/AESHOSP</href>
                            <title>Requires or Prolongs Hospitalization</title>
                            <type>SDTM Dataset Variable</type>
                        </self>
                    </_links>
                    <core>Perm</core>
                    <description>Did the serious event require or prolong hospitalization?</description>
                    <label>Requires or Prolongs Hospitalization</label>
                    <name>AESHOSP</name>
                    <ordinal>38</ordinal>
                    <simpleDatatype>Char</simpleDatatype>
                </datasetVariable>
                <datasetVariable>
                    <_links>
                        <self>
                            <href>/mdr/sdtmig/3-2/datasets/AE/variables/AESLIFE</href>
                            <title>Is Life Threatening</title>
                            <type>SDTM Dataset Variable</type>
                        </self>
                    </_links>
                    <core>Perm</core>
                    <description>Was the serious event life threatening?</description>
                    <label>Is Life Threatening</label>
                    <name>AESLIFE</name>
                    <ordinal>39</ordinal>
                    <simpleDatatype>Char</simpleDatatype>
                </datasetVariable>
                <datasetVariable>
                    <_links>
                        <self>
                            <href>/mdr/sdtmig/3-2/datasets/AE/variables/AESOD</href>
                            <title>Occurred with Overdose</title>
                            <type>SDTM Dataset Variable</type>
                        </self>
                    </_links>
                    <core>Perm</core>
                    <description>Did the serious event occur with an overdose?</description>
                    <label>Occurred with Overdose</label>
                    <name>AESOD</name>
                    <ordinal>40</ordinal>
                    <simpleDatatype>Char</simpleDatatype>
                </datasetVariable>
                <datasetVariable>
                    <_links>
                        <self>
                            <href>/mdr/sdtmig/3-2/datasets/AE/variables/AESMIE</href>
                            <title>Other Medically Important Serious Event</title>
                            <type>SDTM Dataset Variable</type>
                        </self>
                    </_links>
                    <core>Perm</core>
                    <description>Do additional categories for seriousness apply?</description>
                    <label>Other Medically Important Serious Event</label>
                    <name>AESMIE</name>
                    <ordinal>41</ordinal>
                    <simpleDatatype>Char</simpleDatatype>
                </datasetVariable>
                <datasetVariable>
                    <_links>
                        <self>
                            <href>/mdr/sdtmig/3-2/datasets/AE/variables/AECONTRT</href>
                            <title>Concomitant or Additional Trtmnt Given</title>
                            <type>SDTM Dataset Variable</type>
                        </self>
                    </_links>
                    <core>Perm</core>
                    <description>Was another treatment given because of the occurrence of the event?</description>
                    <label>Concomitant or Additional Trtmnt Given</label>
                    <name>AECONTRT</name>
                    <ordinal>42</ordinal>
                    <simpleDatatype>Char</simpleDatatype>
                </datasetVariable>
                <datasetVariable>
                    <_links>
                        <self>
                            <href>/mdr/sdtmig/3-2/datasets/AE/variables/AETOXGR</href>
                            <title>Standard Toxicity Grade</title>
                            <type>SDTM Dataset Variable</type>
                        </self>
                    </_links>
                    <core>Perm</core>
                    <description>Toxicity grade according to a standard toxicity scale such as Common Terminology Criteria for Adverse Events v3.0 (CTCAE). Sponsor should specify name of the scale and version used in the metadata (see Assumption 6d). If value is from a numeric scale, represent only the number (e.g., "2" and not "Grade 2").</description>
                    <label>Standard Toxicity Grade</label>
                    <name>AETOXGR</name>
                    <ordinal>43</ordinal>
                    <simpleDatatype>Char</simpleDatatype>
                </datasetVariable>
                <datasetVariable>
                    <_links>
                        <self>
                            <href>/mdr/sdtmig/3-2/datasets/AE/variables/AESTDTC</href>
                            <title>Start Date/Time of Adverse Event</title>
                            <type>SDTM Dataset Variable</type>
                        </self>
                    </_links>
                    <core>Exp</core>
                    <describedValueDomain>ISO 8601</describedValueDomain>
                    <label>Start Date/Time of Adverse Event</label>
                    <name>AESTDTC</name>
                    <ordinal>44</ordinal>
                    <simpleDatatype>Char</simpleDatatype>
                </datasetVariable>
                <datasetVariable>
                    <_links>
                        <self>
                            <href>/mdr/sdtmig/3-2/datasets/AE/variables/AEENDTC</href>
                            <title>End Date/Time of Adverse Event</title>
                            <type>SDTM Dataset Variable</type>
                        </self>
                    </_links>
                    <core>Exp</core>
                    <describedValueDomain>ISO 8601</describedValueDomain>
                    <label>End Date/Time of Adverse Event</label>
                    <name>AEENDTC</name>
                    <ordinal>45</ordinal>
                    <simpleDatatype>Char</simpleDatatype>
                </datasetVariable>
                <datasetVariable>
                    <_links>
                        <self>
                            <href>/mdr/sdtmig/3-2/datasets/AE/variables/AESTDY</href>
                            <title>Study Day of Start of Adverse Event</title>
                            <type>SDTM Dataset Variable</type>
                        </self>
                    </_links>
                    <core>Perm</core>
                    <description>Study day of start of adverse event relative to the sponsor-defined RFSTDTC.</description>
                    <label>Study Day of Start of Adverse Event</label>
                    <name>AESTDY</name>
                    <ordinal>46</ordinal>
                    <simpleDatatype>Num</simpleDatatype>
                </datasetVariable>
                <datasetVariable>
                    <_links>
                        <self>
                            <href>/mdr/sdtmig/3-2/datasets/AE/variables/AEENDY</href>
                            <title>Study Day of End of Adverse Event</title>
                            <type>SDTM Dataset Variable</type>
                        </self>
                    </_links>
                    <core>Perm</core>
                    <description>Study day of end of event relative to the sponsor-defined RFSTDTC.</description>
                    <label>Study Day of End of Adverse Event</label>
                    <name>AEENDY</name>
                    <ordinal>47</ordinal>
                    <simpleDatatype>Num</simpleDatatype>
                </datasetVariable>
                <datasetVariable>
                    <_links>
                        <self>
                            <href>/mdr/sdtmig/3-2/datasets/AE/variables/AEDUR</href>
                            <title>Duration of Adverse Event</title>
                            <type>SDTM Dataset Variable</type>
                        </self>
                    </_links>
                    <core>Perm</core>
                    <describedValueDomain>ISO 8601</describedValueDomain>
                    <description>Collected duration and unit of an adverse event. Used only if collected on the CRF and not derived from start and end date/times. Example: P1DT2H (for 1 day, 2 hours).</description>
                    <label>Duration of Adverse Event</label>
                    <name>AEDUR</name>
                    <ordinal>48</ordinal>
                    <simpleDatatype>Char</simpleDatatype>
                </datasetVariable>
                <datasetVariable>
                    <_links>
                        <self>
                            <href>/mdr/sdtmig/3-2/datasets/AE/variables/AEENRF</href>
                            <title>End Relative to Reference Period</title>
                            <type>SDTM Dataset Variable</type>
                        </self>
                    </_links>
                    <core>Perm</core>
                    <description>Describes the end of the event relative to the sponsor-defined reference period. The sponsor-defined reference period is a continuous period of time defined by a discrete starting point (RFSTDTC) and a discrete ending point (RFENDTC) of the trial.</description>
                    <label>End Relative to Reference Period</label>
                    <name>AEENRF</name>
                    <ordinal>49</ordinal>
                    <simpleDatatype>Char</simpleDatatype>
                </datasetVariable>
                <datasetVariable>
                    <_links>
                        <self>
                            <href>/mdr/sdtmig/3-2/datasets/AE/variables/AEENRTPT</href>
                            <title>End Relative to Reference Time Point</title>
                            <type>SDTM Dataset Variable</type>
                        </self>
                    </_links>
                    <core>Perm</core>
                    <description>Identifies the end of the event as being before or after the reference time point defined by variable AEENTPT.</description>
                    <label>End Relative to Reference Time Point</label>
                    <name>AEENRTPT</name>
                    <ordinal>50</ordinal>
                    <simpleDatatype>Char</simpleDatatype>
                </datasetVariable>
                <datasetVariable>
                    <_links>
                        <self>
                            <href>/mdr/sdtmig/3-2/datasets/AE/variables/AEENTPT</href>
                            <title>End Reference Time Point</title>
                            <type>SDTM Dataset Variable</type>
                        </self>
                    </_links>
                    <core>Perm</core>
                    <description>Description of date/time in ISO 8601 character format of the reference point referred to by AEENRTPT. Examples: "2003-12-25" or "VISIT 2".</description>
                    <label>End Reference Time Point</label>
                    <name>AEENTPT</name>
                    <ordinal>51</ordinal>
                    <simpleDatatype>Char</simpleDatatype>
                </datasetVariable>
                <description>An events domain that contains data describing untoward medical occurrences in a patient or subjects that are administered a pharmaceutical product and which may not necessarily have a causal relationship with the treatment. (Source: CDISC Controlled Terminology, DOMAIN, C49562, 2018-06-29)</description>
                <label>Adverse Events</label>
                <name>AE</name>
                <ordinal>10</ordinal>
            </dataset>
            <dataset>
                <_links>
                    <self>
                        <href>/mdr/sdtmig/3-2/datasets/MH</href>
                        <title>Medical History</title>
                        <type>SDTM Dataset</type>
                    </self>
                </_links>
                <datasetVariable>
                    <_links>
                        <self>
                            <href>/mdr/sdtmig/3-2/datasets/MH/variables/STUDYID</href>
                            <title>Study Identifier</title>
                            <type>SDTM Dataset Variable</type>
                        </self>
                    </_links>
                    <core>Req</core>
                    <description>Unique identifier for a study.</description>
                    <label>Study Identifier</label>
                    <name>STUDYID</name>
                    <ordinal>1</ordinal>
                    <simpleDatatype>Char</simpleDatatype>
                </datasetVariable>
                <datasetVariable>
                    <_links>
                        <self>
                            <href>/mdr/sdtmig/3-2/datasets/MH/variables/DOMAIN</href>
                            <title>Domain Abbreviation</title>
                            <type>SDTM Dataset Variable</type>
                        </self>
                    </_links>
                    <core>Req</core>
                    <description>Two-character abbreviation for the domain.</description>
                    <label>Domain Abbreviation</label>
                    <name>DOMAIN</name>
                    <ordinal>2</ordinal>
                    <simpleDatatype>Char</simpleDatatype>
                    <valueList>
                        <value>MH</value>
                    </valueList>
                </datasetVariable>
                <datasetVariable>
                    <_links>
                        <self>
                            <href>/mdr/sdtmig/3-2/datasets/MH/variables/USUBJID</href>
                            <title>Unique Subject Identifier</title>
                            <type>SDTM Dataset Variable</type>
                        </self>
                    </_links>
                    <core>Req</core>
                    <description>Identifier used to uniquely identify a subject across all studies for all applications or submissions involving the product.</description>
                    <label>Unique Subject Identifier</label>
                    <name>USUBJID</name>
                    <ordinal>3</ordinal>
                    <simpleDatatype>Char</simpleDatatype>
                </datasetVariable>
                <datasetVariable>
                    <_links>
                        <self>
                            <href>/mdr/sdtmig/3-2/datasets/MH/variables/MHSEQ</href>
                            <title>Sequence Number</title>
                            <type>SDTM Dataset Variable</type>
                        </self>
                    </_links>
                    <core>Req</core>
                    <description>Sequence Number given to ensure uniqueness of subject records within a domain. May be any valid number.</description>
                    <label>Sequence Number</label>
                    <name>MHSEQ</name>
                    <ordinal>4</ordinal>
                    <simpleDatatype>Num</simpleDatatype>
                </datasetVariable>
                <datasetVariable>
                    <_links>
                        <self>
                            <href>/mdr/sdtmig/3-2/datasets/MH/variables/MHGRPID</href>
                            <title>Group ID</title>
                            <type>SDTM Dataset Variable</type>
                        </self>
                    </_links>
                    <core>Perm</core>
                    <description>Used to tie together a block of related records in a single domain for a subject.</description>
                    <label>Group ID</label>
                    <name>MHGRPID</name>
                    <ordinal>5</ordinal>
                    <simpleDatatype>Char</simpleDatatype>
                </datasetVariable>
                <datasetVariable>
                    <_links>
                        <self>
                            <href>/mdr/sdtmig/3-2/datasets/MH/variables/MHREFID</href>
                            <title>Reference ID</title>
                            <type>SDTM Dataset Variable</type>
                        </self>
                    </_links>
                    <core>Perm</core>
                    <description>Internal or external medical history identifier.</description>
                    <label>Reference ID</label>
                    <name>MHREFID</name>
                    <ordinal>6</ordinal>
                    <simpleDatatype>Char</simpleDatatype>
                </datasetVariable>
                <datasetVariable>
                    <_links>
                        <self>
                            <href>/mdr/sdtmig/3-2/datasets/MH/variables/MHSPID</href>
                            <title>Sponsor-Defined Identifier</title>
                            <type>SDTM Dataset Variable</type>
                        </self>
                    </_links>
                    <core>Perm</core>
                    <description>Sponsor-defined reference number. Perhaps pre-printed on the CRF as an explicit line identifier or defined in the sponsor's operational database. Example: Line number on a Medical History page.</description>
                    <label>Sponsor-Defined Identifier</label>
                    <name>MHSPID</name>
                    <ordinal>7</ordinal>
                    <simpleDatatype>Char</simpleDatatype>
                </datasetVariable>
                <datasetVariable>
                    <_links>
                        <self>
                            <href>/mdr/sdtmig/3-2/datasets/MH/variables/MHTERM</href>
                            <title>Reported Term for the Medical History</title>
                            <type>SDTM Dataset Variable</type>
                        </self>
                    </_links>
                    <core>Req</core>
                    <description>Verbatim or preprinted CRF term for the medical condition or event.</description>
                    <label>Reported Term for the Medical History</label>
                    <name>MHTERM</name>
                    <ordinal>8</ordinal>
                    <simpleDatatype>Char</simpleDatatype>
                </datasetVariable>
                <datasetVariable>
                    <_links>
                        <self>
                            <href>/mdr/sdtmig/3-2/datasets/MH/variables/MHMODIFY</href>
                            <title>Modified Reported Term</title>
                            <type>SDTM Dataset Variable</type>
                        </self>
                    </_links>
                    <core>Perm</core>
                    <description>If MHTERM is modified to facilitate coding, then MHMODIFY will contain the modified text.</description>
                    <label>Modified Reported Term</label>
                    <name>MHMODIFY</name>
                    <ordinal>9</ordinal>
                    <simpleDatatype>Char</simpleDatatype>
                </datasetVariable>
                <datasetVariable>
                    <_links>
                        <self>
                            <href>/mdr/sdtmig/3-2/datasets/MH/variables/MHDECOD</href>
                            <title>Dictionary-Derived Term</title>
                            <type>SDTM Dataset Variable</type>
                        </self>
                    </_links>
                    <core>Perm</core>
                    <description>Dictionary-derived text description of MHTERM or MHMODIFY. Equivalent to the Preferred Term (PT in MedDRA). The sponsor is expected to provide the dictionary name and version used to map the terms utilizing the define.xml external codelist attributes.</description>
                    <label>Dictionary-Derived Term</label>
                    <name>MHDECOD</name>
                    <ordinal>10</ordinal>
                    <simpleDatatype>Char</simpleDatatype>
                </datasetVariable>
                <datasetVariable>
                    <_links>
                        <self>
                            <href>/mdr/sdtmig/3-2/datasets/MH/variables/MHCAT</href>
                            <title>Category for Medical History</title>
                            <type>SDTM Dataset Variable</type>
                        </self>
                    </_links>
                    <core>Perm</core>
                    <description>Used to define a category of related records. Examples: CARDIAC or GENERAL</description>
                    <label>Category for Medical History</label>
                    <name>MHCAT</name>
                    <ordinal>11</ordinal>
                    <simpleDatatype>Char</simpleDatatype>
                </datasetVariable>
                <datasetVariable>
                    <_links>
                        <self>
                            <href>/mdr/sdtmig/3-2/datasets/MH/variables/MHSCAT</href>
                            <title>Subcategory for Medical History</title>
                            <type>SDTM Dataset Variable</type>
                        </self>
                    </_links>
                    <core>Perm</core>
                    <description>A further categorization of the condition or event.</description>
                    <label>Subcategory for Medical History</label>
                    <name>MHSCAT</name>
                    <ordinal>12</ordinal>
                    <simpleDatatype>Char</simpleDatatype>
                </datasetVariable>
                <datasetVariable>
                    <_links>
                        <self>
                            <href>/mdr/sdtmig/3-2/datasets/MH/variables/MHPRESP</href>
                            <title>Medical History Event Pre-Specified</title>
                            <type>SDTM Dataset Variable</type>
                        </self>
                    </_links>
                    <core>Perm</core>
                    <description>A value of "Y" indicates that this medical history event was pre-specified on the CRF. Values are null for spontaneously reported events (i.e., those collected as free-text verbatim terms)</description>
                    <label>Medical History Event Pre-Specified</label>
                    <name>MHPRESP</name>
                    <ordinal>13</ordinal>
                    <simpleDatatype>Char</simpleDatatype>
                </datasetVariable>
                <datasetVariable>
                    <_links>
                        <self>
                            <href>/mdr/sdtmig/3-2/datasets/MH/variables/MHOCCUR</href>
                            <title>Medical History Occurrence</title>
                            <type>SDTM Dataset Variable</type>
                        </self>
                    </_links>
                    <core>Perm</core>
                    <description>Used when the occurrence of specific medical history conditions is solicited to indicate whether or not (Y/N) a medical condition (MHTERM) had ever occurred. Values are null for spontaneously reported events.</description>
                    <label>Medical History Occurrence</label>
                    <name>MHOCCUR</name>
                    <ordinal>14</ordinal>
                    <simpleDatatype>Char</simpleDatatype>
                </datasetVariable>
                <datasetVariable>
                    <_links>
                        <self>
                            <href>/mdr/sdtmig/3-2/datasets/MH/variables/MHSTAT</href>
                            <title>Completion Status</title>
                            <type>SDTM Dataset Variable</type>
                        </self>
                    </_links>
                    <core>Perm</core>
                    <description>The status indicates that the pre-specified question was not asked/answered.</description>
                    <label>Completion Status</label>
                    <name>MHSTAT</name>
                    <ordinal>15</ordinal>
                    <simpleDatatype>Char</simpleDatatype>
                </datasetVariable>
                <datasetVariable>
                    <_links>
                        <self>
                            <href>/mdr/sdtmig/3-2/datasets/MH/variables/MHREASND</href>
                            <title>Reason Medical History Not Done or Not Occurred</title>
                            <type>SDTM Dataset Variable</type>
                        </self>
                    </_links>
                    <core>Perm</core>
                    <description>Reason the question was not asked/answered or an intervention did not occur. Used in conjunction with negation indicators --STAT of 'NOT DONE' or --OCCUR of 'N'</description>
                    <label>Reason Medical History Not Done or Not Occurred</label>
                    <name>MHREASND</name>
                    <ordinal>16</ordinal>
                    <simpleDatatype>Char</simpleDatatype>
                </datasetVariable>
                <datasetVariable>
                    <_links>
                        <self>
                            <href>/mdr/sdtmig/3-2/datasets/MH/variables/MHBODSYS</href>
                            <title>Body System or Organ Class</title>
                            <type>SDTM Dataset Variable</type>
                        </self>
                    </_links>
                    <core>Perm</core>
                    <description>Dictionary-derived. Body system or organ class that is involved in an event or measurement from a standard hierarchy (e.g., MedDRA). When using a multi-axial dictionary such as MedDRA, this should contain the SOC used for the sponsor's analyses and summary tables which may not necessarily be the primary SOC.</description>
                    <label>Body System or Organ Class</label>
                    <name>MHBODSYS</name>
                    <ordinal>17</ordinal>
                    <simpleDatatype>Char</simpleDatatype>
                </datasetVariable>
                <datasetVariable>
                    <_links>
                        <self>
                            <href>/mdr/sdtmig/3-2/datasets/MH/variables/MHDTC</href>
                            <title>Date/Time of History Collection</title>
                            <type>SDTM Dataset Variable</type>
                        </self>
                    </_links>
                    <core>Perm</core>
                    <describedValueDomain>ISO 8601</describedValueDomain>
                    <label>Date/Time of History Collection</label>
                    <name>MHDTC</name>
                    <ordinal>18</ordinal>
                    <simpleDatatype>Char</simpleDatatype>
                </datasetVariable>
                <datasetVariable>
                    <_links>
                        <self>
                            <href>/mdr/sdtmig/3-2/datasets/MH/variables/MHSTDTC</href>
                            <title>Start Date/Time of Medical History Event</title>
                            <type>SDTM Dataset Variable</type>
                        </self>
                    </_links>
                    <core>Perm</core>
                    <describedValueDomain>ISO 8601</describedValueDomain>
                    <label>Start Date/Time of Medical History Event</label>
                    <name>MHSTDTC</name>
                    <ordinal>19</ordinal>
                    <simpleDatatype>Char</simpleDatatype>
                </datasetVariable>
                <datasetVariable>
                    <_links>
                        <self>
                            <href>/mdr/sdtmig/3-2/datasets/MH/variables/MHENDTC</href>
                            <title>End Date/Time of Medical History Event</title>
                            <type>SDTM Dataset Variable</type>
                        </self>
                    </_links>
                    <core>Perm</core>
                    <describedValueDomain>ISO 8601</describedValueDomain>
                    <label>End Date/Time of Medical History Event</label>
                    <name>MHENDTC</name>
                    <ordinal>20</ordinal>
                    <simpleDatatype>Char</simpleDatatype>
                </datasetVariable>
                <datasetVariable>
                    <_links>
                        <self>
                            <href>/mdr/sdtmig/3-2/datasets/MH/variables/MHDY</href>
                            <title>Study Day of History Collection</title>
                            <type>SDTM Dataset Variable</type>
                        </self>
                    </_links>
                    <core>Perm</core>
                    <description>1. Study day of medical history collection, measured as integer days. 2. Algorithm for calculations must be relative to the sponsor-defined RFSTDTC variable in Demographics. This formula should be consistent across the submission.</description>
                    <label>Study Day of History Collection</label>
                    <name>MHDY</name>
                    <ordinal>21</ordinal>
                    <simpleDatatype>Num</simpleDatatype>
                </datasetVariable>
                <datasetVariable>
                    <_links>
                        <self>
                            <href>/mdr/sdtmig/3-2/datasets/MH/variables/MHENRF</href>
                            <title>End Relative to Reference Period</title>
                            <type>SDTM Dataset Variable</type>
                        </self>
                    </_links>
                    <core>Perm</core>
                    <description>Describes the end of the event relative to the sponsor-defined reference period. The sponsor-defined reference period is a continuous period of time defined by a discrete starting point and a discrete ending point (represented by RFSTDTC and RFENDTC in Demographics)</description>
                    <label>End Relative to Reference Period</label>
                    <name>MHENRF</name>
                    <ordinal>22</ordinal>
                    <simpleDatatype>Char</simpleDatatype>
                </datasetVariable>
                <datasetVariable>
                    <_links>
                        <self>
                            <href>/mdr/sdtmig/3-2/datasets/MH/variables/MHENRTPT</href>
                            <title>End Relative to Reference Time Point</title>
                            <type>SDTM Dataset Variable</type>
                        </self>
                    </_links>
                    <core>Perm</core>
                    <description>Identifies the end of the event as being before or after the reference time point defined by variable MHENTPT.</description>
                    <label>End Relative to Reference Time Point</label>
                    <name>MHENRTPT</name>
                    <ordinal>23</ordinal>
                    <simpleDatatype>Char</simpleDatatype>
                    <valueList>
                        <value>AFTER</value>
                        <value>BEFORE</value>
                        <value>COINCIDENT</value>
                        <value>ONGOING</value>
                        <value>U</value>
                    </valueList>
                </datasetVariable>
                <datasetVariable>
                    <_links>
                        <self>
                            <href>/mdr/sdtmig/3-2/datasets/MH/variables/MHENTPT</href>
                            <title>End Reference Time Point</title>
                            <type>SDTM Dataset Variable</type>
                        </self>
                    </_links>
                    <core>Perm</core>
                    <description>Description or date/time in ISO 8601 character format of the reference point referred to by MHENRTPT. Examples: "2003-12-25" or "VISIT 2".</description>
                    <label>End Reference Time Point</label>
                    <name>MHENTPT</name>
                    <ordinal>24</ordinal>
                    <simpleDatatype>Char</simpleDatatype>
                </datasetVariable>
                <description>An events domain that contains data that includes the subject's prior medical history at the start of the trial. (Source: CDISC Controlled Terminology, DOMAIN, C49603, 2018-06-29)</description>
                <label>Medical History</label>
                <name>MH</name>
                <ordinal>15</ordinal>
            </dataset>
            <description>This SDTM class captures planned protocol milestones such as randomization and study completion, and occurrences, conditions, or incidents independent of planned study evaluations occurring during the trial (e.g., adverse events) or prior to the trial (e.g., medical history). (Source: CDISC Controlled Terminology, GNRLOBSC, C103372, 2018-06-29)</description>
            <label>Events Observation Class</label>
            <name>Events</name>
            <ordinal>4</ordinal>
        </class>
        <class>
            <_links>
                <self>
                    <href>/mdr/sdtmig/3-2/classes/Findings</href>
                    <title>Findings Observation Class</title>
                    <type>Class</type>
                </self>
            </_links>
            <dataset>
                <_links>
                    <self>
                        <href>/mdr/sdtmig/3-2/datasets/LB</href>
                        <title>Labs</title>
                        <type>SDTM Dataset</type>
                    </self>
                </_links>
                <datasetVariable>
                    <_links>
                        <self>
                            <href>/mdr/sdtmig/3-2/datasets/LB/variables/STUDYID</href>
                            <title>Study Identifier</title>
                            <type>SDTM Dataset Variable</type>
                        </self>
                    </_links>
                    <core>Req</core>
                    <description>Unique identifier for a study.</description>
                    <label>Study Identifier</label>
                    <name>STUDYID</name>
                    <ordinal>1</ordinal>
                    <simpleDatatype>Char</simpleDatatype>
                </datasetVariable>
                <datasetVariable>
                    <_links>
                        <self>
                            <href>/mdr/sdtmig/3-2/datasets/LB/variables/DOMAIN</href>
                            <title>Domain Abbreviation</title>
                            <type>SDTM Dataset Variable</type>
                        </self>
                    </_links>
                    <core>Req</core>
                    <description>Two-character abbreviation for the domain.</description>
                    <label>Domain Abbreviation</label>
                    <name>DOMAIN</name>
                    <ordinal>2</ordinal>
                    <simpleDatatype>Char</simpleDatatype>
                    <valueList>
                        <value>LB</value>
                    </valueList>
                </datasetVariable>
                <datasetVariable>
                    <_links>
                        <self>
                            <href>/mdr/sdtmig/3-2/datasets/LB/variables/USUBJID</href>
                            <title>Unique Subject Identifier</title>
                            <type>SDTM Dataset Variable</type>
                        </self>
                    </_links>
                    <core>Req</core>
                    <description>Identifier used to uniquely identify a subject across all studies for all applications or submissions involving the product.</description>
                    <label>Unique Subject Identifier</label>
                    <name>USUBJID</name>
                    <ordinal>3</ordinal>
                    <simpleDatatype>Char</simpleDatatype>
                </datasetVariable>
                <datasetVariable>
                    <_links>
                        <self>
                            <href>/mdr/sdtmig/3-2/datasets/LB/variables/LBSEQ</href>
                            <title>Sequence Number</title>
                            <type>SDTM Dataset Variable</type>
                        </self>
                    </_links>
                    <core>Req</core>
                    <description>Sequence Number given to ensure uniqueness of subject records within a domain. May be any valid number.</description>
                    <label>Sequence Number</label>
                    <name>LBSEQ</name>
                    <ordinal>4</ordinal>
                    <simpleDatatype>Num</simpleDatatype>
                </datasetVariable>
                <datasetVariable>
                    <_links>
                        <self>
                            <href>/mdr/sdtmig/3-2/datasets/LB/variables/LBGRPID</href>
                            <title>Group ID</title>
                            <type>SDTM Dataset Variable</type>
                        </self>
                    </_links>
                    <core>Perm</core>
                    <description>Used to tie together a block of related records in a single domain for a subject.</description>
                    <label>Group ID</label>
                    <name>LBGRPID</name>
                    <ordinal>5</ordinal>
                    <simpleDatatype>Char</simpleDatatype>
                </datasetVariable>
                <datasetVariable>
                    <_links>
                        <self>
                            <href>/mdr/sdtmig/3-2/datasets/LB/variables/LBREFID</href>
                            <title>Specimen ID</title>
                            <type>SDTM Dataset Variable</type>
                        </self>
                    </_links>
                    <core>Perm</core>
                    <description>Internal or external specimen identifier. Example: Specimen ID.</description>
                    <label>Specimen ID</label>
                    <name>LBREFID</name>
                    <ordinal>6</ordinal>
                    <simpleDatatype>Char</simpleDatatype>
                </datasetVariable>
                <datasetVariable>
                    <_links>
                        <self>
                            <href>/mdr/sdtmig/3-2/datasets/LB/variables/LBSPID</href>
                            <title>Sponsor-Defined Identifier</title>
                            <type>SDTM Dataset Variable</type>
                        </self>
                    </_links>
                    <core>Perm</core>
                    <description>Sponsor-defined reference number. Perhaps pre-printed on the CRF as an explicit line identifier or defined in the sponsor's operational database. Example: Line number on the Lab page.</description>
                    <label>Sponsor-Defined Identifier</label>
                    <name>LBSPID</name>
                    <ordinal>7</ordinal>
                    <simpleDatatype>Char</simpleDatatype>
                </datasetVariable>
                <datasetVariable>
                    <_links>
                        <self>
                            <href>/mdr/sdtmig/3-2/datasets/LB/variables/LBTESTCD</href>
                            <title>Lab Test or Examination Short Name</title>
                            <type>SDTM Dataset Variable</type>
                        </self>
                    </_links>
                    <core>Req</core>
                    <description>Short name of the measurement, test, or examination described in LBTEST. It can be used as a column name when converting a dataset from a vertical to a horizontal format. The value in LBTESTCD cannot be longer than 8 characters, nor can it start with a number (e.g."1TEST"). LBTESTCD cannot contain characters other than letters, numbers, or underscores. Examples: ALT, LDH.</description>
                    <label>Lab Test or Examination Short Name</label>
                    <name>LBTESTCD</name>
                    <ordinal>8</ordinal>
                    <simpleDatatype>Char</simpleDatatype>
                </datasetVariable>
                <datasetVariable>
                    <_links>
                        <self>
                            <href>/mdr/sdtmig/3-2/datasets/LB/variables/LBTEST</href>
                            <title>Lab Test or Examination Name</title>
                            <type>SDTM Dataset Variable</type>
                        </self>
                    </_links>
                    <core>Req</core>
                    <description>Verbatim name of the test or examination used to obtain the measurement or finding. Note any test normally performed by a clinical laboratory is considered a lab test. The value in LBTEST cannot be longer than 40 characters. Examples: Alanine Aminotransferase, Lactate Dehydrogenase.</description>
                    <label>Lab Test or Examination Name</label>
                    <name>LBTEST</name>
                    <ordinal>9</ordinal>
                    <simpleDatatype>Char</simpleDatatype>
                </datasetVariable>
                <datasetVariable>
                    <_links>
                        <self>
                            <href>/mdr/sdtmig/3-2/datasets/LB/variables/LBCAT</href>
                            <title>Category for Lab Test</title>
                            <type>SDTM Dataset Variable</type>
                        </self>
                    </_links>
                    <core>Exp</core>
                    <description>Used to define a category of related records across subjects. Examples: such as HEMATOLOGY, URINALYSIS, CHEMISTRY.</description>
                    <label>Category for Lab Test</label>
                    <name>LBCAT</name>
                    <ordinal>10</ordinal>
                    <simpleDatatype>Char</simpleDatatype>
                </datasetVariable>
                <datasetVariable>
                    <_links>
                        <self>
                            <href>/mdr/sdtmig/3-2/datasets/LB/variables/LBSCAT</href>
                            <title>Subcategory for Lab Test</title>
                            <type>SDTM Dataset Variable</type>
                        </self>
                    </_links>
                    <core>Perm</core>
                    <description>A further categorization of a test category such as DIFFERENTIAL, COAGULATON, LIVER FUNCTION, ELECTROLYTES.</description>
                    <label>Subcategory for Lab Test</label>
                    <name>LBSCAT</name>
                    <ordinal>11</ordinal>
                    <simpleDatatype>Char</simpleDatatype>
                </datasetVariable>
                <datasetVariable>
                    <_links>
                        <self>
                            <href>/mdr/sdtmig/3-2/datasets/LB/variables/LBORRES</href>
                            <title>Result or Finding in Original Units</title>
                            <type>SDTM Dataset Variable</type>
                        </self>
                    </_links>
                    <core>Exp</core>
                    <description>Result of the measurement or finding as originally received or collected.</description>
                    <label>Result or Finding in Original Units</label>
                    <name>LBORRES</name>
                    <ordinal>12</ordinal>
                    <simpleDatatype>Char</simpleDatatype>
                </datasetVariable>
                <datasetVariable>
                    <_links>
                        <self>
                            <href>/mdr/sdtmig/3-2/datasets/LB/variables/LBORRESU</href>
                            <title>Original Units</title>
                            <type>SDTM Dataset Variable</type>
                        </self>
                    </_links>
                    <core>Exp</core>
                    <description>Original units in which the data were collected. The unit for LBORRES. Example: g/L.</description>
                    <label>Original Units</label>
                    <name>LBORRESU</name>
                    <ordinal>13</ordinal>
                    <simpleDatatype>Char</simpleDatatype>
                </datasetVariable>
                <datasetVariable>
                    <_links>
                        <self>
                            <href>/mdr/sdtmig/3-2/datasets/LB/variables/LBORNRLO</href>
                            <title>Reference Range Lower Limit in Orig Unit</title>
                            <type>SDTM Dataset Variable</type>
                        </self>
                    </_links>
                    <core>Exp</core>
                    <description>Lower end of reference range for continuous measurements in original units. Should be populated only for continuous results.</description>
                    <label>Reference Range Lower Limit in Orig Unit</label>
                    <name>LBORNRLO</name>
                    <ordinal>14</ordinal>
                    <simpleDatatype>Char</simpleDatatype>
                </datasetVariable>
                <datasetVariable>
                    <_links>
                        <self>
                            <href>/mdr/sdtmig/3-2/datasets/LB/variables/LBORNRHI</href>
                            <title>Reference Range Upper Limit in Orig Unit</title>
                            <type>SDTM Dataset Variable</type>
                        </self>
                    </_links>
                    <core>Exp</core>
                    <description>Upper end of reference range for continuous measurements in original units. Should be populated only for continuous results.</description>
                    <label>Reference Range Upper Limit in Orig Unit</label>
                    <name>LBORNRHI</name>
                    <ordinal>15</ordinal>
                    <simpleDatatype>Char</simpleDatatype>
                </datasetVariable>
                <datasetVariable>
                    <_links>
                        <self>
                            <href>/mdr/sdtmig/3-2/datasets/LB/variables/LBSTRESC</href>
                            <title>Character Result/Finding in Std Format</title>
                            <type>SDTM Dataset Variable</type>
                        </self>
                    </_links>
                    <core>Exp</core>
                    <description>Contains the result value for all findings, copied or derived from LBORRES in a standard format or standard units. LBSTRESC should store all results or findings in character format; if results are numeric, they should also be stored in numeric format in LBSTRESN. For example, if a test has results "NONE", "NEG", and "NEGATIVE" in LBORRES and these results effectively have the same meaning, they could be represented in standard format in LBSTRESC as "NEGATIVE". For other examples, see general assumptions.</description>
                    <label>Character Result/Finding in Std Format</label>
                    <name>LBSTRESC</name>
                    <ordinal>16</ordinal>
                    <simpleDatatype>Char</simpleDatatype>
                </datasetVariable>
                <datasetVariable>
                    <_links>
                        <self>
                            <href>/mdr/sdtmig/3-2/datasets/LB/variables/LBSTRESN</href>
                            <title>Numeric Result/Finding in Standard Units</title>
                            <type>SDTM Dataset Variable</type>
                        </self>
                    </_links>
                    <core>Exp</core>
                    <description>Used for continuous or numeric results or findings in standard format; copied in numeric format from LBSTRESC. LBSTRESN should store all numeric test results or findings.</description>
                    <label>Numeric Result/Finding in Standard Units</label>
                    <name>LBSTRESN</name>
                    <ordinal>17</ordinal>
                    <simpleDatatype>Num</simpleDatatype>
                </datasetVariable>
                <datasetVariable>
                    <_links>
                        <self>
                            <href>/mdr/sdtmig/3-2/datasets/LB/variables/LBSTRESU</href>
                            <title>Standard Units</title>
                            <type>SDTM Dataset Variable</type>
                        </self>
                    </_links>
                    <core>Exp</core>
                    <description>Standardized unit used for LBSTRESC or LBSTRESN.</description>
                    <label>Standard Units</label>
                    <name>LBSTRESU</name>
                    <ordinal>18</ordinal>
                    <simpleDatatype>Char</simpleDatatype>
                </datasetVariable>
                <datasetVariable>
                    <_links>
                        <self>
                            <href>/mdr/sdtmig/3-2/datasets/LB/variables/LBSTNRLO</href>
                            <title>Reference Range Lower Limit-Std Units</title>
                            <type>SDTM Dataset Variable</type>
                        </self>
                    </_links>
                    <core>Exp</core>
                    <description>Lower end of reference range for continuous measurements for LBSTRESC/LBSTRESN in standardized units. Should be populated only for continuous results.</description>
                    <label>Reference Range Lower Limit-Std Units</label>
                    <name>LBSTNRLO</name>
                    <ordinal>19</ordinal>
                    <simpleDatatype>Num</simpleDatatype>
                </datasetVariable>
                <datasetVariable>
                    <_links>
                        <self>
                            <href>/mdr/sdtmig/3-2/datasets/LB/variables/LBSTNRHI</href>
                            <title>Reference Range Upper Limit-Std Units</title>
                            <type>SDTM Dataset Variable</type>
                        </self>
                    </_links>
                    <core>Exp</core>
                    <description>Upper end of reference range for continuous measurements in standardized units. Should be populated only for continuous results.</description>
                    <label>Reference Range Upper Limit-Std Units</label>
                    <name>LBSTNRHI</name>
                    <ordinal>20</ordinal>
                    <simpleDatatype>Num</simpleDatatype>
                </datasetVariable>
                <datasetVariable>
                    <_links>
                        <self>
                            <href>/mdr/sdtmig/3-2/datasets/LB/variables/LBSTNRC</href>
                            <title>Reference Range for Char Rslt-Std Units</title>
                            <type>SDTM Dataset Variable</type>
                        </self>
                    </_links>
                    <core>Perm</core>
                    <description>For normal range values that are character in ordinal scale or if categorical ranges were supplied (e.g., "-1 to +1", "NEGATIVE TO TRACE").</description>
                    <label>Reference Range for Char Rslt-Std Units</label>
                    <name>LBSTNRC</name>
                    <ordinal>21</ordinal>
                    <simpleDatatype>Char</simpleDatatype>
                </datasetVariable>
                <datasetVariable>
                    <_links>
                        <self>
                            <href>/mdr/sdtmig/3-2/datasets/LB/variables/LBNRIND</href>
                            <title>Reference Range Indicator</title>
                            <type>SDTM Dataset Variable</type>
                        </self>
                    </_links>
                    <core>Exp</core>
                    <description>1. Indicates where the value falls with respect to reference range defined by LBORNRLO and LBORNRHI, LBSTNRLO and LBSTNRHI, or by LBSTNRC. Examples: NORMAL, ABNORMAL, HIGH, LOW. 2. Sponsors should specify in the study metadata (Comments column in the define.xml) whether LBNRIND refers to the original or standard reference ranges and results. 3. Should not be used to indicate clinical significance.</description>
                    <label>Reference Range Indicator</label>
                    <name>LBNRIND</name>
                    <ordinal>22</ordinal>
                    <simpleDatatype>Char</simpleDatatype>
                </datasetVariable>
                <datasetVariable>
                    <_links>
                        <self>
                            <href>/mdr/sdtmig/3-2/datasets/LB/variables/LBSTAT</href>
                            <title>Completion Status</title>
                            <type>SDTM Dataset Variable</type>
                        </self>
                    </_links>
                    <core>Perm</core>
                    <description>Used to indicate exam not done. Should be null if a result exists in LBORRES.</description>
                    <label>Completion Status</label>
                    <name>LBSTAT</name>
                    <ordinal>23</ordinal>
                    <simpleDatatype>Char</simpleDatatype>
                </datasetVariable>
                <datasetVariable>
                    <_links>
                        <self>
                            <href>/mdr/sdtmig/3-2/datasets/LB/variables/LBREASND</href>
                            <title>Reason Test Not Done</title>
                            <type>SDTM Dataset Variable</type>
                        </self>
                    </_links>
                    <core>Perm</core>
                    <description>Describes why a measurement or test was not performed such as BROKEN EQUIPMENT, SUBJECT REFUSED, or SPECIMEN LOST. Used in conjunction with LBSTAT when value is NOT DONE.</description>
                    <label>Reason Test Not Done</label>
                    <name>LBREASND</name>
                    <ordinal>24</ordinal>
                    <simpleDatatype>Char</simpleDatatype>
                </datasetVariable>
                <datasetVariable>
                    <_links>
                        <self>
                            <href>/mdr/sdtmig/3-2/datasets/LB/variables/LBNAM</href>
                            <title>Vendor Name</title>
                            <type>SDTM Dataset Variable</type>
                        </self>
                    </_links>
                    <core>Perm</core>
                    <description>The name or identifier of the laboratory that performed the test.</description>
                    <label>Vendor Name</label>
                    <name>LBNAM</name>
                    <ordinal>25</ordinal>
                    <simpleDatatype>Char</simpleDatatype>
                </datasetVariable>
                <datasetVariable>
                    <_links>
                        <self>
                            <href>/mdr/sdtmig/3-2/datasets/LB/variables/LBLOINC</href>
                            <title>LOINC Code</title>
                            <type>SDTM Dataset Variable</type>
                        </self>
                    </_links>
                    <core>Perm</core>
                    <description>1. Dictionary-derived LOINC Code for LBTEST. 2. The sponsor is expected to provide the dictionary name and version used to map the terms utilizing the define.xml external codelist attributes</description>
                    <label>LOINC Code</label>
                    <name>LBLOINC</name>
                    <ordinal>26</ordinal>
                    <simpleDatatype>Char</simpleDatatype>
                </datasetVariable>
                <datasetVariable>
                    <_links>
                        <self>
                            <href>/mdr/sdtmig/3-2/datasets/LB/variables/LBSPEC</href>
                            <title>Specimen Type</title>
                            <type>SDTM Dataset Variable</type>
                        </self>
                    </_links>
                    <core>Perm</core>
                    <description>Defines the type of specimen used for a measurement. Examples: SERUM, PLASMA, URINE.</description>
                    <label>Specimen Type</label>
                    <name>LBSPEC</name>
                    <ordinal>27</ordinal>
                    <simpleDatatype>Char</simpleDatatype>
                </datasetVariable>
                <datasetVariable>
                    <_links>
                        <self>
                            <href>/mdr/sdtmig/3-2/datasets/LB/variables/LBSPCCND</href>
                            <title>Specimen Condition</title>
                            <type>SDTM Dataset Variable</type>
                        </self>
                    </_links>
                    <core>Perm</core>
                    <description>Free or standardized text describing the condition of the specimen e.g. HEMOLYZED, ICTERIC, LIPEMIC etc.</description>
                    <label>Specimen Condition</label>
                    <name>LBSPCCND</name>
                    <ordinal>28</ordinal>
                    <simpleDatatype>Char</simpleDatatype>
                </datasetVariable>
                <datasetVariable>
                    <_links>
                        <self>
                            <href>/mdr/sdtmig/3-2/datasets/LB/variables/LBMETHOD</href>
                            <title>Method of Test or Examination</title>
                            <type>SDTM Dataset Variable</type>
                        </self>
                    </_links>
                    <core>Perm</core>
                    <description>Method of the test or examination. Examples: EIA (Enzyme Immunoassay), ELECTROPHORESIS, DIPSTICK</description>
                    <label>Method of Test or Examination</label>
                    <name>LBMETHOD</name>
                    <ordinal>29</ordinal>
                    <simpleDatatype>Char</simpleDatatype>
                </datasetVariable>
                <datasetVariable>
                    <_links>
                        <self>
                            <href>/mdr/sdtmig/3-2/datasets/LB/variables/LBBLFL</href>
                            <title>Baseline Flag</title>
                            <type>SDTM Dataset Variable</type>
                        </self>
                    </_links>
                    <core>Exp</core>
                    <description>Indicator used to identify a baseline value. The value should be "Y" or null.</description>
                    <label>Baseline Flag</label>
                    <name>LBBLFL</name>
                    <ordinal>30</ordinal>
                    <simpleDatatype>Char</simpleDatatype>
                </datasetVariable>
                <datasetVariable>
                    <_links>
                        <self>
                            <href>/mdr/sdtmig/3-2/datasets/LB/variables/LBFAST</href>
                            <title>Fasting Status</title>
                            <type>SDTM Dataset Variable</type>
                        </self>
                    </_links>
                    <core>Perm</core>
                    <description>Indicator used to identify fasting status such as Y, N, U, or null if not relevant.</description>
                    <label>Fasting Status</label>
                    <name>LBFAST</name>
                    <ordinal>31</ordinal>
                    <simpleDatatype>Char</simpleDatatype>
                </datasetVariable>
                <datasetVariable>
                    <_links>
                        <self>
                            <href>/mdr/sdtmig/3-2/datasets/LB/variables/LBDRVFL</href>
                            <title>Derived Flag</title>
                            <type>SDTM Dataset Variable</type>
                        </self>
                    </_links>
                    <core>Perm</core>
                    <description>Used to indicate a derived record. The value should be Y or null. Records that represent the average of other records, or do not come from the CRF, or are not as originally received or collected are examples of records that might be derived for the submission datasets. If LBDRVFL=Y, then LBORRES may be null, with LBSTRESC, and (if numeric) LBSTRESN having the derived value.</description>
                    <label>Derived Flag</label>
                    <name>LBDRVFL</name>
                    <ordinal>32</ordinal>
                    <simpleDatatype>Char</simpleDatatype>
                </datasetVariable>
                <datasetVariable>
                    <_links>
                        <self>
                            <href>/mdr/sdtmig/3-2/datasets/LB/variables/LBTOX</href>
                            <title>Toxicity</title>
                            <type>SDTM Dataset Variable</type>
                        </self>
                    </_links>
                    <core>Perm</core>
                    <description>Description of toxicity quantified by LBTOXGR. The sponsor is expected to provide the name of the scale and version used to map the terms, utilizing the define.xml external codelist attributes.</description>
                    <label>Toxicity</label>
                    <name>LBTOX</name>
                    <ordinal>33</ordinal>
                    <simpleDatatype>Char</simpleDatatype>
                </datasetVariable>
                <datasetVariable>
                    <_links>
                        <self>
                            <href>/mdr/sdtmig/3-2/datasets/LB/variables/LBTOXGR</href>
                            <title>Standard Toxicity Grade</title>
                            <type>SDTM Dataset Variable</type>
                        </self>
                    </_links>
                    <core>Perm</core>
                    <description>Records toxicity grade value using a standard toxicity scale (such as the NCI CTCAE). If value is from a numeric scale, represent only the number (e.g., "2" and not "Grade 2"). The sponsor is expected to provide the name of the scale and version used to map the terms, utilizing the define.xml external codelist attributes.</description>
                    <label>Standard Toxicity Grade</label>
                    <name>LBTOXGR</name>
                    <ordinal>34</ordinal>
                    <simpleDatatype>Char</simpleDatatype>
                </datasetVariable>
                <datasetVariable>
                    <_links>
                        <self>
                            <href>/mdr/sdtmig/3-2/datasets/LB/variables/VISITNUM</href>
                            <title>Visit Number</title>
                            <type>SDTM Dataset Variable</type>
                        </self>
                    </_links>
                    <core>Exp</core>
                    <description>1. Clinical encounter number. 2. Numeric version of VISIT, used for sorting.</description>
                    <label>Visit Number</label>
                    <name>VISITNUM</name>
                    <ordinal>35</ordinal>
                    <simpleDatatype>Num</simpleDatatype>
                </datasetVariable>
                <datasetVariable>
                    <_links>
                        <self>
                            <href>/mdr/sdtmig/3-2/datasets/LB/variables/VISIT</href>
                            <title>Visit Name</title>
                            <type>SDTM Dataset Variable</type>
                        </self>
                    </_links>
                    <core>Perm</core>
                    <description>1. Protocol-defined description of clinical encounter 2. May be used in addition to VISITNUM and/or VISITDY</description>
                    <label>Visit Name</label>
                    <name>VISIT</name>
                    <ordinal>36</ordinal>
                    <simpleDatatype>Char</simpleDatatype>
                </datasetVariable>
                <datasetVariable>
                    <_links>
                        <self>
                            <href>/mdr/sdtmig/3-2/datasets/LB/variables/VISITDY</href>
                            <title>Planned Study Day of Visit</title>
                            <type>SDTM Dataset Variable</type>
                        </self>
                    </_links>
                    <core>Perm</core>
                    <description>Planned study day of the visit based upon RFSTDTC in Demographics.</description>
                    <label>Planned Study Day of Visit</label>
                    <name>VISITDY</name>
                    <ordinal>37</ordinal>
                    <simpleDatatype>Num</simpleDatatype>
                </datasetVariable>
                <datasetVariable>
                    <_links>
                        <self>
                            <href>/mdr/sdtmig/3-2/datasets/LB/variables/LBDTC</href>
                            <title>Date/Time of Specimen Collection</title>
                            <type>SDTM Dataset Variable</type>
                        </self>
                    </_links>
                    <core>Exp</core>
                    <describedValueDomain>ISO 8601</describedValueDomain>
                    <label>Date/Time of Specimen Collection</label>
                    <name>LBDTC</name>
                    <ordinal>38</ordinal>
                    <simpleDatatype>Char</simpleDatatype>
                </datasetVariable>
                <datasetVariable>
                    <_links>
                        <self>
                            <href>/mdr/sdtmig/3-2/datasets/LB/variables/LBENDTC</href>
                            <title>End Date/Time of Specimen Collection</title>
                            <type>SDTM Dataset Variable</type>
                        </self>
                    </_links>
                    <core>Perm</core>
                    <describedValueDomain>ISO 8601</describedValueDomain>
                    <label>End Date/Time of Specimen Collection</label>
                    <name>LBENDTC</name>
                    <ordinal>39</ordinal>
                    <simpleDatatype>Char</simpleDatatype>
                </datasetVariable>
                <datasetVariable>
                    <_links>
                        <self>
                            <href>/mdr/sdtmig/3-2/datasets/LB/variables/LBDY</href>
                            <title>Study Day of Specimen Collection</title>
                            <type>SDTM Dataset Variable</type>
                        </self>
                    </_links>
                    <core>Perm</core>
                    <description>1. Study day of specimen collection, measured as integer days. 2. Algorithm for calculations must be relative to the sponsor-defined RFSTDTC variable in Demographics. This formula should be consistent across the submission.</description>
                    <label>Study Day of Specimen Collection</label>
                    <name>LBDY</name>
                    <ordinal>40</ordinal>
                    <simpleDatatype>Num</simpleDatatype>
                </datasetVariable>
                <datasetVariable>
                    <_links>
                        <self>
                            <href>/mdr/sdtmig/3-2/datasets/LB/variables/LBTPT</href>
                            <title>Planned Time Point Name</title>
                            <type>SDTM Dataset Variable</type>
                        </self>
                    </_links>
                    <core>Perm</core>
                    <description>1. Text Description of time when specimen should be taken. 2. This may be represented as an elapsed time relative to a fixed reference point, such as time of last dose. See LBTPTNUM and LBTPTREF. Examples: Start, 5 min post.</description>
                    <label>Planned Time Point Name</label>
                    <name>LBTPT</name>
                    <ordinal>41</ordinal>
                    <simpleDatatype>Char</simpleDatatype>
                </datasetVariable>
                <datasetVariable>
                    <_links>
                        <self>
                            <href>/mdr/sdtmig/3-2/datasets/LB/variables/LBTPTNUM</href>
                            <title>Planned Time Point Number</title>
                            <type>SDTM Dataset Variable</type>
                        </self>
                    </_links>
                    <core>Perm</core>
                    <description>Numerical version of LBTPT to aid in sorting.</description>
                    <label>Planned Time Point Number</label>
                    <name>LBTPTNUM</name>
                    <ordinal>42</ordinal>
                    <simpleDatatype>Num</simpleDatatype>
                </datasetVariable>
                <datasetVariable>
                    <_links>
                        <self>
                            <href>/mdr/sdtmig/3-2/datasets/LB/variables/LBELTM</href>
                            <title>Planned Elapsed Time from Time Point Ref</title>
                            <type>SDTM Dataset Variable</type>
                        </self>
                    </_links>
                    <core>Perm</core>
                    <describedValueDomain>ISO 8601</describedValueDomain>
                    <description>Planned Elapsed time (in ISO 8601) relative to a planned fixed reference (LBTPTREF). This variable is useful where there are repetitive measures. Not a clock time or a date time variable. Represented as an ISO 8601 duration. Examples: "-PT15M" to represent the period of 15 minutes prior to the reference point indicated by LBTPTREF, or "PT8H" to represent the period of 8 hours after the reference point indicated by LBTPTREF.</description>
                    <label>Planned Elapsed Time from Time Point Ref</label>
                    <name>LBELTM</name>
                    <ordinal>43</ordinal>
                    <simpleDatatype>Char</simpleDatatype>
                </datasetVariable>
                <datasetVariable>
                    <_links>
                        <self>
                            <href>/mdr/sdtmig/3-2/datasets/LB/variables/LBTPTREF</href>
                            <title>Time Point Reference</title>
                            <type>SDTM Dataset Variable</type>
                        </self>
                    </_links>
                    <core>Perm</core>
                    <description>Name of the fixed reference point referred to by LBELTM, LBTPTNUM, and LBTPT. Examples: PREVIOUS DOSE, PREVIOUS MEAL.</description>
                    <label>Time Point Reference</label>
                    <name>LBTPTREF</name>
                    <ordinal>44</ordinal>
                    <simpleDatatype>Char</simpleDatatype>
                </datasetVariable>
                <datasetVariable>
                    <_links>
                        <self>
                            <href>/mdr/sdtmig/3-2/datasets/LB/variables/LBRFTDTC</href>
                            <title>Date/Time of Reference Time Point</title>
                            <type>SDTM Dataset Variable</type>
                        </self>
                    </_links>
                    <core>Perm</core>
                    <describedValueDomain>ISO 8601</describedValueDomain>
                    <description>Date/time of the reference time point, LBTPTREF.</description>
                    <label>Date/Time of Reference Time Point</label>
                    <name>LBRFTDTC</name>
                    <ordinal>45</ordinal>
                    <simpleDatatype>Char</simpleDatatype>
                </datasetVariable>
                <description>A findings domain that contains laboratory test data such as hematology, clinical chemistry and urinalysis. This domain does not include microbiology or pharmacokinetic data, which are stored in separate domains. (Source: CDISC Controlled Terminology, DOMAIN, C49592, 2018-06-29)</description>
                <label>Labs</label>
                <name>LB</name>
                <ordinal>21</ordinal>
            </dataset>
            <dataset>
                <_links>
                    <self>
                        <href>/mdr/sdtmig/3-2/datasets/VS</href>
                        <title>Vital Signs</title>
                        <type>SDTM Dataset</type>
                    </self>
                </_links>
                <datasetVariable>
                    <_links>
                        <self>
                            <href>/mdr/sdtmig/3-2/datasets/VS/variables/STUDYID</href>
                            <title>Study Identifier</title>
                            <type>SDTM Dataset Variable</type>
                        </self>
                    </_links>
                    <core>Req</core>
                    <description>Unique identifier for a study.</description>
                    <label>Study Identifier</label>
                    <name>STUDYID</name>
                    <ordinal>1</ordinal>
                    <simpleDatatype>Char</simpleDatatype>
                </datasetVariable>
                <datasetVariable>
                    <_links>
                        <self>
                            <href>/mdr/sdtmig/3-2/datasets/VS/variables/DOMAIN</href>
                            <title>Domain Abbreviation</title>
                            <type>SDTM Dataset Variable</type>
                        </self>
                    </_links>
                    <core>Req</core>
                    <description>Two-character abbreviation for the domain.</description>
                    <label>Domain Abbreviation</label>
                    <name>DOMAIN</name>
                    <ordinal>2</ordinal>
                    <simpleDatatype>Char</simpleDatatype>
                    <valueList>
                        <value>VS</value>
                    </valueList>
                </datasetVariable>
                <datasetVariable>
                    <_links>
                        <self>
